File: Data/KMK273/pXRD/KMK273.xy
'Id: "" Comment: "Integrate frame JR1110_01_0001.sfrmwith cursor Slice Cursor #1" Operator: "Artemisserver" Anode: "Mo" Scantype: "TwoTheta" TimePerStep: "240"
7.9 0
7.935 -0.384614
7.97 0.831709
8.005 2.09904
8.04 4.10305
8.075 5.33825
8.11 5.94098
8.145 7.4839
8.18 8.73107
8.215 9.98565
8.25 11.0297
8.285 11.8791
8.32 13.6207
8.355 14.4194
8.39 15.7665
8.425 16.8212
8.46 17.5086
8.495 17.3904
8.53 17.1594
8.565 16.7609
8.6 17.7503
8.635 17.6516
8.67 16.9373
8.705 15.9638
8.74 14.3222
8.775 13.8406
8.81 14.0837
8.845 15.1376
8.88 15.0661
8.915 14.0763
8.95 13.8373
8.985 14.0982
9.02 14.0522
9.055 12.6776
9.09 13.5939
9.125 13.6285
9.16 13.3402
9.195 13.4603
9.23 14.0702
9.265 13.1357
9.3 12.4818
9.335 12.5344
9.37 13.018
9.405 13.378
9.44 12.477
9.475 11.9555
9.51 12.0628
9.545 12.251
9.58 11.3804
9.615 11.8033
9.65 11.8955
9.685 11.4816
9.72 10.4688
9.755 11.1935
9.79 10.7779
9.825 9.38773
9.86 8.75137
9.895 8.86511
9.93 8.22903
9.965 8.78096
10 7.53648
10.035 7.30749
10.07 7.58762
10.105 7.00015
10.14 6.97483
10.175 5.7933
10.21 4.87245
10.245 4.60998
10.28 4.27845
10.315 4.22061
10.35 3.4438
10.385 3.59053
10.42 2.77652
10.455 3.68685
10.49 3.57748
10.525 3.29731
10.56 4.23391
10.595 3.60163
10.63 3.11246
10.665 3.45121
10.7 3.82486
10.735 3.43951
10.77 2.83414
10.805 2.99961
10.84 2.47977
10.875 2.4779
10.91 2.65923
10.945 3.18583
10.98 3.29417
11.015 2.48658
11.05 3.21238
11.085 2.982
11.12 2.44051
11.155 2.00272
11.19 1.71666
11.225 1.62179
11.26 2.2127
11.295 1.24322
11.33 1.12247
11.365 1.42482
11.4 0.815905
11.435 0.704429
11.47 0.0578276
11.505 0.184161
11.54 0.386883
11.575 -0.0282554
11.61 0.299029
11.645 0.772832
11.68 2.11731
11.715 1.95739
11.75 0.0317863
11.785 0.50158
11.82 1.31823
11.855 0.412127
11.89 0.883032
11.925 0.94272
11.96 1.58028
11.995 1.47824
12.03 1.30297
12.065 0.88586
12.1 0.871177
12.135 0.826999
12.17 0.486831
12.205 0.336453
12.24 0.703858
12.275 0.48016
12.31 0.831116
12.345 0.972949
12.38 0.764294
12.415 -0.09332
12.45 0.199803
12.485 -0.280254
12.52 0.271055
12.555 0.842434
12.59 0.451902
12.625 0.36546
12.66 1.13135
12.695 0.384874
12.73 0.255068
12.765 -0.0463327
12.8 0.0331145
12.835 -0.336028
12.87 0.631273
12.905 0.962919
12.94 0.630099
12.975 0.393826
13.01 0.69571
13.045 1.2522
13.08 1.11796
13.115 2.45864
13.15 3.43428
13.185 3.80053
13.22 6.05583
13.255 7.55119
13.29 9.36289
13.325 11.4495
13.36 14.325
13.395 17.587
13.43 22.4816
13.465 27.0831
13.5 30.4949
13.535 34.2179
13.57 40.0754
13.605 45.0312
13.64 49.5294
13.675 53.8886
13.71 57.78
13.745 60.2967
13.78 62.6978
13.815 63.6536
13.85 63.6062
13.885 63.1314
13.92 61.2246
13.955 60.9157
13.99 57.8961
14.025 55.3459
14.06 50.8706
14.095 46.6308
14.13 42.4064
14.165 38.2264
14.2 33.092
14.235 28.875
14.27 24.8591
14.305 21.7426
14.34 18.3052
14.375 15.3746
14.41 13.654
14.445 11.5011
14.48 9.28746
14.515 7.18009
14.55 6.56274
14.585 5.7648
14.62 4.61053
14.655 4.03524
14.69 3.74415
14.725 4.11811
14.76 4.09355
14.795 3.71487
14.83 4.44561
14.865 4.80695
14.9 5.05771
14.935 4.65093
14.97 4.81217
15.005 5.17846
15.04 5.39024
15.075 5.88471
15.11 6.65811
15.145 6.67849
15.18 7.38696
15.215 7.38384
15.25 8.19291
15.285 8.5738
15.32 9.73877
15.355 9.9817
15.39 10.3594
15.425 11.1894
15.46 12.4826
15.495 13.8303
15.53 16.6972
15.565 19.5134
15.6 23.6452
15.635 28.8922
15.67 34.6754
15.705 42.2606
15.74 51.766
15.775 62.4326
15.81 73.9991
15.845 86.2601
15.88 99.4562
15.915 111.622
15.95 124.701
15.985 138.818
16.02 149.984
16.055 161.764
16.09 173.15
16.125 181.581
16.16 189.366
16.195 193.663
16.23 194.778
16.265 195.798
16.3 193.212
16.335 187.553
16.37 181.816
16.405 174.842
16.44 164.749
16.475 153.348
16.51 142.015
16.545 130.281
16.58 117.986
16.615 106.906
16.65 94.3616
16.685 82.9943
16.72 73.1591
16.755 63.0178
16.79 54.9337
16.825 48.4971
16.86 42.2174
16.895 35.872
16.93 30.7536
16.965 27.4954
17 24.4215
17.035 21.2812
17.07 19.3457
17.105 17.3106
17.14 15.5528
17.175 13.8185
17.21 12.4998
17.245 11.2057
17.28 10.1199
17.315 9.29842
17.35 7.82956
17.385 6.53702
17.42 5.88252
17.455 5.04763
17.49 4.11107
17.525 3.21471
17.56 2.81075
17.595 2.0128
17.63 1.63772
17.665 1.05468
17.7 1.12248
17.735 0.947758
17.77 1.26133
17.805 0.659147
17.84 0.156805
17.875 0.5362
17.91 0.540027
17.945 0.510075
17.98 0.740551
18.015 0.130952
18.05 0.194228
18.085 0.381887
18.12 0.676192
18.155 -0.0858816
18.19 -0.105734
18.225 0.270637
18.26 0.316154
18.295 -0.175073
18.33 0.0274225
18.365 -0.298108
18.4 -0.00942122
18.435 0.0839946
18.47 0.129097
18.505 0.621066
18.54 0.778422
18.575 0.0918366
18.61 0.296837
18.645 0.724205
18.68 0.561243
18.715 0.913755
18.75 1.31196
18.785 1.01233
18.82 1.40211
18.855 1.24255
18.89 1.89198
18.925 2.42815
18.96 3.74653
18.995 4.60178
19.03 4.58939
19.065 5.63222
19.1 7.22673
19.135 9.25746
19.17 11.2175
19.205 12.9269
19.24 15.131
19.275 17.5407
19.31 20.1505
19.345 23.1056
19.38 25.6458
19.415 28.3237
19.45 30.2183
19.485 32.56
19.52 33.5282
19.555 35.509
19.59 35.9435
19.625 37.2456
19.66 37.1425
19.695 36.3316
19.73 34.6902
19.765 33.1828
19.8 31.4016
19.835 30.4096
19.87 27.7041
19.905 24.7712
19.94 22.1702
19.975 19.6
20.01 17.4618
20.045 15.5087
20.08 12.766
20.115 10.4105
20.15 9.16251
20.185 7.16519
20.22 6.66044
20.255 5.59162
20.29 4.69216
20.325 4.62983
20.36 3.89439
20.395 2.7028
20.43 2.02871
20.465 2.55203
20.5 2.03289
20.535 1.76806
20.57 1.4802
20.605 1.50442
20.64 1.71586
20.675 1.54928
20.71 0.847316
20.745 0.764636
20.78 0.95433
20.815 0.473462
20.85 0.549772
20.885 0.670082
20.92 0.527406
20.955 0.159769
20.99 -0.183932
21.025 0.259284
21.06 0.578623
21.095 -0.269184
21.13 0.212946
21.165 0.0396415
21.2 0.0342011
21.235 0.788038
21.27 0.351176
21.305 0.240953
21.34 -0.202255
21.375 -0.0477808
21.41 0.573629
21.445 1.12041
21.48 0.884514
21.515 0.649526
21.55 0.575296
21.585 0.153704
21.62 0.759814
21.655 0.222707
21.69 -0.0290328
21.725 0.255287
21.76 0.274995
21.795 0.312862
21.83 0.511777
21.865 0.429268
21.9 0.160237
21.935 0.101226
21.97 -0.0380699
22.005 0.0352149
22.04 0.130873
22.075 -0.122709
22.11 -0.178006
22.145 0.367688
22.18 0.308218
22.215 -0.264532
22.25 0.375561
22.285 0.432062
22.32 0.321045
22.355 0.435999
22.39 0.653682
22.425 0.548933
22.46 0.225966
22.495 0.36835
22.53 0.399065
22.565 0.340032
22.6 0.358359
22.635 0.0170318
22.67 0.573728
22.705 0.705503
22.74 0.516493
22.775 0.227691
22.81 0.225457
22.845 0.170024
22.88 0.337587
22.915 0.514994
22.95 0.541927
22.985 0.0168254
23.02 0.201202
23.055 0.222649
23.09 0.378054
23.125 0.214123
23.16 0.25172
23.195 -0.1235
23.23 0.0587656
23.265 0.588591
23.3 -0.123277
23.335 0.791822
23.37 1.80638
23.405 1.86358
23.44 2.35278
23.475 2.75063
23.51 3.97071
23.545 4.36756
23.58 5.44679
23.615 6.43251
23.65 7.94815
23.685 9.02389
23.72 11.6242
23.755 12.5969
23.79 14.3665
23.825 16.2676
23.86 16.9929
23.895 18.1545
23.93 19.8933
23.965 20.7052
24 22.3563
24.035 23.1023
24.07 21.9843
24.105 21.6607
24.14 22.6935
24.175 22.2436
24.21 21.5152
24.245 20.8484
24.28 20.0257
24.315 18.3276
24.35 17.9608
24.385 16.9788
24.42 15.1009
24.455 13.7729
24.49 12.9373
24.525 11.6503
24.56 10.642
24.595 9.99441
24.63 9.26653
24.665 8.12247
24.7 7.66114
24.735 7.67822
24.77 7.94258
24.805 8.34082
24.84 8.78017
24.875 9.07325
24.91 9.60496
24.945 11.4363
24.98 13.8322
25.015 15.4858
25.05 18.7692
25.085 22.0073
25.12 25.2025
25.155 28.9981
25.19 33.1041
25.225 36.9793
25.26 41.5286
25.295 45.8957
25.33 49.9135
25.365 54.0767
25.4 57.9273
25.435 63.2676
25.47 65.2893
25.505 66.7621
25.54 68.8273
25.575 69.2215
25.61 69.7896
25.645 68.3493
25.68 66.4424
25.715 63.0633
25.75 58.8818
25.785 55.5243
25.82 51.4151
25.855 47.0061
25.89 42.3791
25.925 37.8144
25.96 34.7461
25.995 31.207
26.03 26.5457
26.065 23.0346
26.1 19.6451
26.135 17.2667
26.17 15.2538
26.205 13.7016
26.24 12.1792
26.275 10.6549
26.31 9.36116
26.345 8.50341
26.38 8.397
26.415 7.93972
26.45 7.77293
26.485 8.0345
26.52 6.9152
26.555 6.80273
26.59 7.22223
26.625 7.18808
26.66 7.37466
26.695 7.4377
26.73 7.30265
26.765 6.58841
26.8 6.82037
26.835 7.18501
26.87 7.29311
26.905 7.15137
26.94 7.08932
26.975 7.16934
27.01 7.63445
27.045 7.86123
27.08 8.13278
27.115 9.01593
27.15 9.69277
27.185 10.7484
27.22 12.6412
27.255 15.5353
27.29 18.1569
27.325 21.0275
27.36 25.1325
27.395 30.0961
27.43 34.7041
27.465 39.8869
27.5 46.8394
27.535 52.7355
27.57 58.7476
27.605 64.4491
27.64 69.6478
27.675 75.8025
27.71 81.8365
27.745 86.3219
27.78 89.8347
27.815 92.7876
27.85 94.5928
27.885 96.4342
27.92 95.7434
27.955 94.1782
27.99 91.0649
28.025 88.7906
28.06 84.9278
28.095 80.3955
28.13 74.5871
28.165 68.8935
28.2 62.8027
28.235 57.9485
28.27 52.3456
28.305 45.9045
28.34 39.9578
28.375 35.6599
28.41 30.8714
28.445 26.8568
28.48 23.6292
28.515 20.3462
28.55 17.2393
28.585 15.1954
28.62 13.596
28.655 12.2006
28.69 11.0303
28.725 10.1887
28.76 8.84744
28.795 8.09953
28.83 7.31141
28.865 7.22522
28.9 6.61968
28.935 6.65057
28.97 5.73447
29.005 5.57326
29.04 5.36799
29.075 4.87813
29.11 4.45682
29.145 3.93588
29.18 3.75555
29.215 3.67612
29.25 3.24193
29.285 2.36597
29.32 2.13862
29.355 2.13242
29.39 1.82181
29.425 1.64776
29.46 1.306
29.495 0.762523
29.53 0.574495
29.565 0.665194
29.6 0.773905
29.635 0.48726
29.67 0.573199
29.705 0.353108
29.74 0.0852431
29.775 0.418778
29.81 0.232259
29.845 0.117529
29.88 0.172035
29.915 0.277837
29.95 0.301358
29.985 0.472461
30.02 0.460163
30.055 0.34256
30.09 0.320559
30.125 0.160552
30.16 0.551012
30.195 0.306542
30.23 0.446576
30.265 0.116716
30.3 0.0582187
30.335 -0.148383
30.37 0.343555
30.405 0.429974
30.44 0.315804
30.475 0.41877
30.51 0.947893
30.545 1.17906
30.58 1.11123
30.615 0.766074
30.65 0.951099
30.685 1.56742
30.72 1.8382
30.755 2.61504
30.79 2.96925
30.825 3.59516
30.86 3.81779
30.895 4.11593
30.93 4.85163
30.965 5.09772
31 5.93478
31.035 6.69222
31.07 7.0356
31.105 6.86682
31.14 7.37504
31.175 7.78294
31.21 7.92783
31.245 8.38434
31.28 8.42203
31.315 8.83068
31.35 8.18176
31.385 7.76216
31.42 6.87955
31.455 6.86053
31.49 6.66853
31.525 6.86272
31.56 6.6997
31.595 6.46379
31.63 5.254
31.665 5.10601
31.7 4.88375
31.735 5.00235
31.77 4.56837
31.805 4.96277
31.84 4.88721
31.875 5.60027
31.91 6.86549
31.945 7.61974
31.98 7.99521
32.015 9.04494
32.05 10.3787
32.085 11.3345
32.12 12.448
32.155 13.6566
32.19 14.5332
32.225 16.1005
32.26 17.2396
32.295 18.3119
32.33 19.1329
32.365 19.4375
32.4 20.5042
32.435 21.0628
32.47 20.9523
32.505 21.5571
32.54 20.3603
32.575 20.0685
32.61 19.7115
32.645 18.7967
32.68 18.8415
32.715 18.0911
32.75 16.7361
32.785 15.3159
32.82 14.6593
32.855 12.9954
32.89 11.5054
32.925 10.817
32.96 9.44454
32.995 8.23476
33.03 7.19899
33.065 6.37717
33.1 5.30638
33.135 4.33308
33.17 4.4795
33.205 3.31703
33.24 3.10001
33.275 2.51137
33.31 2.04229
33.345 1.66334
33.38 1.56465
33.415 1.3849
33.45 1.21844
33.485 1.4958
33.52 1.29218
33.555 0.767814
33.59 0.0131522
33.625 0.174368
33.66 -0.0785536
33.695 0.462055
33.73 0.382245
33.765 0.435206
33.8 0.613832
33.835 0.783906
33.87 0.475481
33.905 0.576182
33.94 1.09065
33.975 1.33505
34.01 1.52649
34.045 1.77376
34.08 2.05526
34.115 2.08291
34.15 2.42271
34.185 3.00134
34.22 3.32174
34.255 3.63393
34.29 3.02223
34.325 3.29919
34.36 3.99363
34.395 3.96416
34.43 3.42109
34.465 2.96215
34.5 3.42034
34.535 2.92759
34.57 2.45486
34.605 1.97268
34.64 2.33862
34.675 1.76968
34.71 1.76411
34.745 1.43669
34.78 1.10444
34.815 0.848683
34.85 0.983162
34.885 1.01801
34.92 0.22301
34.955 0.121999
34.99 0.715198
35.025 0.276904
35.06 0.277259
35.095 0.731453
35.13 0.181735
35.165 0.503647
35.2 0.535428
35.235 0.705827
35.27 0.47493
35.305 0.0948124
35.34 0.710435
35.375 0.612348
35.41 0.280573
35.445 0.448515
35.48 1.27762
35.515 0.85563
35.55 1.04637
35.585 1.09253
35.62 0.597499
35.655 -0.0194642
35.69 0.0691599
35.725 0.473243
35.76 0.401023
35.795 0.432668
35.83 0.218924
35.865 0.331226
35.9 1.05646
35.935 0.685533
35.97 0.285694
36.005 -0.0208314
36.04 0.481021
36.075 0.0662135
36.11 1.01933
36.145 1.10194
36.18 0.655976
36.215 0.643682
36.25 0.805528
36.285 0.778454
36.32 0.642387
36.355 0.902184
36.39 0.844533
36.425 1.02553
36.46 1.49937
36.495 2.38058
36.53 2.25568
36.565 2.47713
36.6 3.0842
36.635 2.96968
36.67 3.2951
36.705 3.74682
36.74 4.71501
36.775 4.564
36.81 5.65922
36.845 6.3098
36.88 7.14609
36.915 7.07109
36.95 7.68585
36.985 8.06533
37.02 8.55255
37.055 9.28526
37.09 9.20845
37.125 9.41259
37.16 9.92725
37.195 9.85991
37.23 9.10088
37.265 8.92399
37.3 9.32301
37.335 9.49877
37.37 9.42668
37.405 9.19496
37.44 9.39943
37.475 9.77612
37.51 9.34211
37.545 9.99286
37.58 10.8093
37.615 10.8314
37.65 11.6254
37.685 11.637
37.72 12.9054
37.755 14.2414
37.79 15.4112
37.825 17.1965
37.86 18.3244
37.895 19.7957
37.93 21.2111
37.965 22.5827
38 24.0184
38.035 24.4992
38.07 25.0617
38.105 26.509
38.14 26.9218
38.175 26.9751
38.21 26.7478
38.245 26.2206
38.28 25.8418
38.315 24.7792
38.35 23.886
38.385 23.5574
38.42 21.3222
38.455 20.1076
38.49 18.5169
38.525 17.3679
38.56 15.4401
38.595 14.4836
38.63 13.2812
38.665 11.6023
38.7 9.68702
38.735 8.8251
38.77 8.08313
38.805 7.19488
38.84 6.53562
38.875 5.7681
38.91 5.01746
38.945 4.49206
38.98 3.97528
39.015 3.62001
39.05 3.8284
39.085 3.56101
39.12 3.54646
39.155 3.99984
39.19 4.23336
39.225 4.17026
39.26 4.06348
39.295 4.30408
39.33 4.7098
39.365 4.89383
39.4 5.49822
39.435 6.00079
39.47 6.52832
39.505 6.92092
39.54 7.3991
39.575 8.33402
39.61 8.3013
39.645 8.7996
39.68 9.21414
39.715 9.76805
39.75 10.2191
39.785 10.4614
39.82 10.4071
39.855 10.5222
39.89 10.443
39.925 10.3022
39.96 9.92294
39.995 9.28184
40.03 8.9792
40.065 8.59823
40.1 8.04466
40.135 7.83303
40.17 7.25821
40.205 6.54201
40.24 5.67293
40.275 5.77651
40.31 4.89547
40.345 4.30926
40.38 3.36224
40.415 2.95996
40.45 2.91061
40.485 2.50977
40.52 1.96876
40.555 2.14564
40.59 1.86782
40.625 1.33783
40.66 1.09131
40.695 1.08862
40.73 0.919816
40.765 1.20501
40.8 1.04492
40.835 0.85549
40.87 0.383249
40.905 0.402744
40.94 0.616477
40.975 0.495421
41.01 0.440137
41.045 0.78168
41.08 0.821686
41.115 0.894523
41.15 0.350959
41.185 0.37442
41.22 0.301109
41.255 0.0400374
41.29 0.101144
41.325 0.136461
41.36 -0.0215234
41.395 0.0486526
41.43 0.169409
41.465 0.141982
41.5 -0.0759218
41.535 0.0679635
41.57 -0.178243
41.605 0.373107
41.64 0.123754
41.675 0.252539
41.71 -0.0425139
41.745 0.143558
41.78 0.193303
41.815 0.60903
41.85 0.506344
41.885 0.477495
41.92 0.882721
41.955 1.34691
41.99 1.71913
42.025 1.70223
42.06 1.96246
42.095 2.09271
42.13 2.46806
42.165 2.29806
42.2 2.6931
42.235 2.77557
42.27 3.08821
42.305 3.69532
42.34 3.40958
42.375 3.3431
42.41 4.05159
42.445 3.88487
42.48 4.29014
42.515 4.61252
42.55 4.34925
42.585 4.03487
42.62 4.35912
42.655 4.48852
42.69 5.11123
42.725 5.9314
42.76 6.26236
42.795 6.27351
42.83 6.35408
42.865 7.51996
42.9 8.31711
42.935 8.59122
42.97 9.38188
43.005 9.86917
43.04 10.5335
43.075 10.4719
43.11 11.0214
43.145 11.2597
43.18 12.1072
43.215 12.8105
43.25 12.7831
43.285 13.6144
43.32 13.3176
43.355 12.9927
43.39 12.9514
43.425 13.3609
43.46 12.939
43.495 11.2618
43.53 10.5013
43.565 9.90844
43.6 9.48388
43.635 9.08653
43.67 8.53867
43.705 7.33895
43.74 6.59405
43.775 6.20114
43.81 5.81806
43.845 5.52747
43.88 4.0679
43.915 3.61639
43.95 3.15241
43.985 2.74809
44.02 1.86175
44.055 2.07276
44.09 2.00781
44.125 1.08404
44.16 1.67687
44.195 1.59018
44.23 1.44721
44.265 1.21841
44.3 1.07792
44.335 1.6366
44.37 1.99074
44.405 1.78434
44.44 1.44079
44.475 1.75141
44.51 1.98786
44.545 2.67504
44.58 2.61997
44.615 2.56199
44.65 2.74583
44.685 2.67888
44.72 2.93235
44.755 3.13009
44.79 3.30912
44.825 3.70754
44.86 3.56676
44.895 3.22331
44.93 3.39341
44.965 3.23565
45 2.65292
45.035 2.44079
45.07 1.94513
45.105 2.0705
45.14 2.66736
45.175 2.22599
45.21 1.7667
45.245 1.83899
45.28 1.25988
45.315 1.14035
45.35 0.870713
45.385 1.37337
45.42 1.32227
45.455 0.484581
45.49 0.590357
45.525 0.40486
45.56 0.0926769
45.595 -0.229018
45.63 0.33388
45.665 0.331511
45.7 0.0854701
45.735 0.326256
45.77 0.561427
45.805 -0.0398359
45.84 -0.0789063
45.875 0.214822
45.91 0.300966
45.945 0.0527602
45.98 0.247734
46.015 0.107894
46.05 0.25569
46.085 0.25892
46.12 0.0885381
46.155 0.603579
46.19 0.318659
46.225 -0.206063
46.26 0.159427
46.295 0.150543
46.33 0.332898
46.365 0.688112
46.4 0.624958
46.435 0.838333
46.47 0.841318
46.505 0.522223
46.54 0.409512
46.575 0.638484
46.61 0.760567
46.645 0.664819
46.68 1.15669
46.715 1.22178
46.75 1.48127
46.785 1.98655
46.82 1.30927
46.855 1.69551
46.89 1.72434
46.925 1.46499
46.96 1.30807
46.995 1.90799
47.03 1.73762
47.065 2.33131
47.1 2.13628
47.135 2.47501
47.17 2.39436
47.205 2.52495
47.24 2.84488
47.275 2.6009
47.31 2.9554
47.345 3.07846
47.38 3.10656
47.415 3.86449
47.45 4.28932
47.485 4.5766
47.52 4.76941
47.555 5.49195
47.59 5.3947
47.625 4.90083
47.66 5.79663
47.695 6.29811
47.73 6.6049
47.765 6.62554
47.8 7.19325
47.835 7.31682
47.87 7.53239
47.905 7.1417
47.94 7.25173
47.975 7.2413
48.01 7.25894
48.045 6.19103
48.08 5.97892
48.115 6.21977
48.15 6.16564
48.185 5.77475
48.22 4.84687
48.255 4.96996
48.29 4.66299
48.325 4.24556
48.36 4.24682
48.395 3.73468
48.43 3.4183
48.465 3.11288
48.5 2.88828
48.535 2.51638
48.57 3.30104
48.605 3.31147
48.64 2.73689
48.675 3.06001
48.71 2.97405
48.745 3.48608
48.78 4.52102
48.815 4.89144
48.85 6.27287
48.885 7.02248
48.92 7.27144
48.955 7.86338
48.99 8.80807
49.025 8.85857
49.06 9.42343
49.095 9.41154
49.13 11.1788
49.165 12.1119
49.2 12.0178
49.235 12.0246
49.27 12.9868
49.305 12.8463
49.34 12.0405
49.375 11.7492
49.41 11.6026
49.445 11.2728
49.48 11.2074
49.515 10.173
49.55 9.89366
49.585 10.3678
49.62 9.45331
49.655 9.03063
49.69 7.88573
49.725 6.96323
49.76 6.82468
49.795 6.08301
49.83 5.22815
49.865 4.60382
49.9 3.91576
49.935 3.29155
49.97 3.45563
50.005 2.56295
50.04 2.26066
50.075 2.26623
50.11 2.03342
50.145 1.4691
50.18 0.574659
50.215 0.525322
50.25 0.950987
50.285 1.0235
50.32 1.00233
50.355 0.528766
50.39 0.403683
50.425 0.571885
50.46 0.759729
50.495 0.700805
50.53 0.192627
50.565 0.350091
50.6 0.424773
50.635 -0.100702
50.67 -0.189739
50.705 0.356995
50.74 0.760983
50.775 0.454228
50.81 0.350495
50.845 1.31972
50.88 1.18181
50.915 1.38019
50.95 1.2135
50.985 1.15674
51.02 1.00826
51.055 1.36071
51.09 1.68255
51.125 1.43006
51.16 1.81693
51.195 2.36143
51.23 2.21026
51.265 2.03653
51.3 2.20654
51.335 2.67071
51.37 2.87132
51.405 2.80655
51.44 2.8528
51.475 3.43462
51.51 3.3493
51.545 3.98029
51.58 3.65635
51.615 3.84857
51.65 4.22785
51.685 4.19052
51.72 4.89994
51.755 4.20275
51.79 4.08447
51.825 4.50445
51.86 5.03772
51.895 5.00846
51.93 5.43428
51.965 5.50996
52 5.53274
52.035 5.59699
52.07 6.29904
52.105 6.94452
52.14 7.16878
52.175 7.47955
52.21 7.69719
52.245 7.14092
52.28 6.77851
52.315 6.7064
52.35 6.54419
52.385 6.21193
52.42 6.59524
52.455 5.93154
52.49 5.80162
52.525 5.75784
52.56 5.57631
52.595 5.74976
52.63 5.43388
52.665 5.00155
52.7 4.37781
52.735 3.98001
52.77 3.61116
52.805 3.00233
52.84 2.744
52.875 2.56012
52.91 2.37959
52.945 1.86556
52.98 1.31035
53.015 0.898208
53.05 1.091
53.085 1.2472
53.12 0.965714
53.155 0.729694
53.19 0.32961
53.225 0.0854452
53.26 0.38484
53.295 0.158299
53.33 0.124068
53.36 0