File: Data/KMK249/pXRD/KMK249.xy
'Id: "" Comment: "Integrate frame JR_1111_03_0001.sfrmwith cursor Slice Cursor #2" Operator: "Artemisserver" Anode: "Mo" Scantype: "TwoTheta" TimePerStep: "240"
7.61 0
7.64 -0.093586
7.67 0.97331
7.7 0.943857
7.73 2.05447
7.76 2.08528
7.79 2.47668
7.82 3.55727
7.85 4.70378
7.88 5.38619
7.91 5.65919
7.94 5.91818
7.97 6.0027
8 6.64928
8.03 7.22696
8.06 8.32553
8.09 9.78265
8.12 10.5346
8.15 12.255
8.18 13.2334
8.21 15.158
8.24 16.8435
8.27 17.3169
8.3 18.3879
8.33 19.9058
8.36 21.8438
8.39 22.6374
8.42 24.3858
8.45 24.796
8.48 25.1909
8.51 25.8052
8.54 25.314
8.57 24.2782
8.6 23.0993
8.63 22.3257
8.66 21.2096
8.69 20.774
8.72 20.5013
8.75 20.0174
8.78 18.9009
8.81 17.47
8.84 16.7575
8.87 15.7481
8.9 15.8732
8.93 16.0888
8.96 16.4449
8.99 16.6535
9.02 17.1048
9.05 16.1971
9.08 16.1286
9.11 16.0425
9.14 15.9425
9.17 15.8636
9.2 15.7523
9.23 15.262
9.26 15.1291
9.29 15.3929
9.32 16.3722
9.35 16.4164
9.38 15.1181
9.41 15.0322
9.44 15.5241
9.47 14.9643
9.5 14.4591
9.53 14.8308
9.56 14.3364
9.59 14.3232
9.62 13.8692
9.65 12.8201
9.68 13.1661
9.71 12.8935
9.74 12.4743
9.77 12.5933
9.8 12.3825
9.83 11.5511
9.86 11.5651
9.89 10.8835
9.92 10.3414
9.95 9.66237
9.98 9.92262
10.01 9.24047
10.04 8.89916
10.07 7.44814
10.1 6.57478
10.13 7.92023
10.16 7.80821
10.19 6.96337
10.22 6.3047
10.25 6.74207
10.28 6.71854
10.31 6.0736
10.34 5.31932
10.37 5.60663
10.4 5.36972
10.43 4.88344
10.46 4.77961
10.49 4.52672
10.52 4.77024
10.55 4.8689
10.58 4.80254
10.61 5.35425
10.64 6.17583
10.67 5.96321
10.7 6.3131
10.73 6.926
10.76 6.74951
10.79 7.92066
10.82 8.37472
10.85 8.00378
10.88 8.59273
10.91 8.18998
10.94 7.62424
10.97 7.71585
11 7.40497
11.03 7.39931
11.06 7.18752
11.09 6.24772
11.12 5.79677
11.15 5.61648
11.18 4.85407
11.21 3.94093
11.24 3.51002
11.27 2.72994
11.3 2.18857
11.33 2.23371
11.36 2.03344
11.39 1.53364
11.42 1.30219
11.45 1.38202
11.48 0.627127
11.51 0.408577
11.54 -0.0480185
11.57 0.221509
11.6 0.629568
11.63 1.32823
11.66 0.69873
11.69 1.24459
11.72 2.20504
11.75 3.44239
11.78 3.33214
11.81 3.81556
11.84 4.23773
11.87 4.36328
11.9 5.03955
11.93 3.88778
11.96 3.78861
11.99 3.93299
12.02 4.5163
12.05 4.6166
12.08 4.03784
12.11 4.41342
12.14 4.73552
12.17 4.00999
12.2 3.22869
12.23 2.55362
12.26 2.13349
12.29 1.70435
12.32 1.19249
12.35 1.22072
12.38 0.958646
12.41 0.890439
12.44 -0.0224344
12.47 0.227531
12.5 0.667961
12.53 0.143683
12.56 0.245404
12.59 0.190435
12.62 0.235111
12.65 0.239355
12.68 0.240414
12.71 -0.0273883
12.74 -0.220317
12.77 0.0178887
12.8 0.256276
12.83 -0.0185379
12.86 1.10493
12.89 1.85519
12.92 1.38195
12.95 0.72257
12.98 0.895504
13.01 0.772564
13.04 1.70748
13.07 2.00757
13.1 0.672122
13.13 1.38918
13.16 2.20663
13.19 2.27301
13.22 2.28389
13.25 3.24928
13.28 4.04705
13.31 4.80642
13.34 5.89777
13.37 7.87081
13.4 10.8072
13.43 15.2923
13.46 18.5827
13.49 23.9373
13.52 31.8443
13.55 38.6026
13.58 45.8634
13.61 53.9667
13.64 62.7573
13.67 70.2041
13.7 77.9875
13.73 85.3072
13.76 91.8238
13.79 95.4901
13.82 97.8599
13.85 99.0097
13.88 98.0086
13.91 94.256
13.94 88.987
13.97 82.3641
14 75.408
14.03 68.0354
14.06 59.9229
14.09 51.9442
14.12 44.7434
14.15 37.8687
14.18 31.3356
14.21 25.4167
14.24 21.0004
14.27 17.3462
14.3 14.1309
14.33 11.3069
14.36 9.4604
14.39 9.12716
14.42 7.48082
14.45 6.29886
14.48 6.46217
14.51 6.5027
14.54 6.05005
14.57 6.1844
14.6 5.81127
14.63 5.14864
14.66 4.47781
14.69 4.70741
14.72 3.74884
14.75 3.95138
14.78 3.74686
14.81 3.19268
14.84 3.69347
14.87 3.67399
14.9 3.94673
14.93 4.11953
14.96 3.75696
14.99 3.92004
15.02 4.34184
15.05 4.34608
15.08 4.96637
15.11 5.39213
15.14 5.28414
15.17 5.98021
15.2 5.98217
15.23 6.39846
15.26 6.9773
15.29 7.38018
15.32 8.33968
15.35 8.5858
15.38 9.52976
15.41 10.8486
15.44 11.9334
15.47 13.1176
15.5 13.8083
15.53 15.356
15.56 15.8298
15.59 17.1512
15.62 18.5215
15.65 20.3309
15.68 22.6686
15.71 25.3788
15.74 30.0124
15.77 37.4192
15.8 45.8476
15.83 57.5973
15.86 70.8322
15.89 86.816
15.92 107.324
15.95 128.833
15.98 151.31
16.01 175.688
16.04 201.164
16.07 226.1
16.1 246.631
16.13 266.389
16.16 282.699
16.19 294.714
16.22 300.723
16.25 302.822
16.28 298.761
16.31 289.542
16.34 276.173
16.37 257.964
16.4 239.385
16.43 216.759
16.46 193.353
16.49 170.81
16.52 148.877
16.55 127.028
16.58 107.325
16.61 90.5077
16.64 76.8266
16.67 64.9397
16.7 56.1157
16.73 49.1451
16.76 44.2342
16.79 40.7994
16.82 38.2336
16.85 34.8626
16.88 32.9966
16.91 30.9129
16.94 29.3901
16.97 27.6213
17 25.1574
17.03 23.3591
17.06 21.4144
17.09 19.254
17.12 17.2599
17.15 14.8246
17.18 12.8609
17.21 11.0904
17.24 9.65641
17.27 7.72798
17.3 6.46511
17.33 5.56128
17.36 4.57342
17.39 4.3761
17.42 3.74262
17.45 2.90788
17.48 2.71958
17.51 2.3908
17.54 2.15609
17.57 2.30004
17.6 2.44621
17.63 2.17938
17.66 1.80994
17.69 1.49852
17.72 1.53928
17.75 1.19467
17.78 0.944413
17.81 0.859524
17.84 0.546154
17.87 0.550185
17.9 0.404001
17.93 0.604275
17.96 0.358214
17.99 0.339586
18.02 0.134637
18.05 -0.122531
18.08 0.312881
18.11 0.362745
18.14 0.157597
18.17 0.558654
18.2 0.197893
18.23 0.195221
18.26 -0.0962888
18.29 -0.18055
18.32 0.112996
18.35 0.198935
18.38 0.391918
18.41 0.575184
18.44 0.618085
18.47 0.962945
18.5 0.68991
18.53 0.924178
18.56 0.734211
18.59 0.55099
18.62 0.161122
18.65 0.450328
18.68 0.613717
18.71 0.563656
18.74 0.473762
18.77 0.326432
18.8 0.989891
18.83 0.837689
18.86 1.14471
18.89 1.94221
18.92 2.09177
18.95 2.4039
18.98 2.805
19.01 3.14733
19.04 3.15103
19.07 3.37976
19.1 4.31719
19.13 5.144
19.16 6.35444
19.19 8.35732
19.22 10.2314
19.25 12.4197
19.28 15.6898
19.31 19.3505
19.34 23.3161
19.37 27.6851
19.4 33.0985
19.43 38.1188
19.46 42.6342
19.49 46.3588
19.52 50.013
19.55 53.5211
19.58 55.7008
19.61 57.0176
19.64 57.0311
19.67 56.5958
19.7 55.6593
19.73 52.1986
19.76 48.7014
19.79 44.6194
19.82 40.0147
19.85 35.16
19.88 30.6143
19.91 25.8385
19.94 22.1584
19.97 18.3942
20 15.4099
20.03 13.2521
20.06 11.1188
20.09 9.10214
20.12 7.79237
20.15 6.74265
20.18 5.98457
20.21 5.52013
20.24 5.59723
20.27 5.38371
20.3 4.46119
20.33 3.80453
20.36 4.07359
20.39 3.52281
20.42 2.43176
20.45 2.37251
20.48 2.02801
20.51 2.03406
20.54 1.43906
20.57 0.740951
20.6 0.320541
20.63 0.769299
20.66 1.01486
20.69 1.37007
20.72 0.818044
20.75 0.244447
20.78 0.258198
20.81 0.422514
20.84 0.361566
20.87 1.01038
20.9 0.850116
20.93 0.506252
20.96 0.196536
20.99 0.272301
21.02 0.123012
21.05 0.122463
21.08 -0.00655736
21.11 -0.184389
21.14 0.24399
21.17 0.767738
21.2 0.746015
21.23 0.647091
21.26 0.681393
21.29 0.623424
21.32 0.391615
21.35 0.844909
21.38 0.915684
21.41 0.913368
21.44 0.661266
21.47 0.557865
21.5 0.656139
21.53 0.679201
21.56 0.188847
21.59 0.284261
21.62 0.702551
21.65 0.910004
21.68 0.60771
21.71 0.209968
21.74 0.431196
21.77 0.317042
21.8 -0.210156
21.83 -0.101286
21.86 0.331293
21.89 0.489732
21.92 0.549117
21.95 0.47794
21.98 -0.262401
22.01 -0.110176
22.04 0.0747013
22.07 0.123733
22.1 0.422016
22.13 0.592597
22.16 0.862749
22.19 1.19826
22.22 1.26137
22.25 1.49623
22.28 1.04683
22.31 1.12708
22.34 1.16728
22.37 1.89822
22.4 2.0805
22.43 1.85365
22.46 2.09045
22.49 2.42181
22.52 2.06968
22.55 2.03279
22.58 2.12431
22.61 2.20922
22.64 2.29737
22.67 2.03974
22.7 1.78198
22.73 1.46983
22.76 1.25116
22.79 0.783983
22.82 0.709095
22.85 0.432798
22.88 0.310962
22.91 0.255307
22.94 0.0320976
22.97 0.242454
23 0.553787
23.03 0.21668
23.06 -0.076934
23.09 0.008374
23.12 0.0744057
23.15 0.0294165
23.18 0.178649
23.21 0.125065
23.24 -0.0447777
23.27 0.442489
23.3 0.628645
23.33 0.684268
23.36 0.427342
23.39 0.53157
23.42 0.389839
23.45 0.734284
23.48 1.11128
23.51 1.92251
23.54 2.33648
23.57 2.53385
23.6 3.52728
23.63 4.3262
23.66 5.57645
23.69 7.0984
23.72 9.27197
23.75 11.8698
23.78 14.3964
23.81 17.2976
23.84 19.4344
23.87 22.002
23.9 25.4769
23.93 27.5497
23.96 29.2189
23.99 31.0746
24.02 32.707
24.05 33.9019
24.08 34.0033
24.11 34.1069
24.14 33.1452
24.17 32.347
24.2 30.9801
24.23 28.8125
24.26 26.7806
24.29 23.3755
24.32 21.2334
24.35 19.7516
24.38 17.2497
24.41 14.5042
24.44 12.7152
24.47 11.2392
24.5 9.83853
24.53 8.4046
24.56 7.67981
24.59 7.04461
24.62 6.53261
24.65 6.36899
24.68 6.92687
24.71 6.63725
24.74 6.33864
24.77 6.46848
24.8 7.12989
24.83 7.37534
24.86 7.41466
24.89 8.14558
24.92 8.66487
24.95 9.41632
24.98 10.0117
25.01 9.96342
25.04 11.0448
25.07 13.7268
25.1 16.5876
25.13 19.6327
25.16 23.7111
25.19 28.5663
25.22 34.0892
25.25 40.5856
25.28 46.6663
25.31 54.4293
25.34 61.7693
25.37 69.634
25.4 76.656
25.43 84.0011
25.46 91.4702
25.49 96.44
25.52 98.9561
25.55 101.578
25.58 101.685
25.61 99.793
25.64 97.2307
25.67 93.0586
25.7 88.1042
25.73 81.2455
25.76 74.0464
25.79 66.2388
25.82 58.6158
25.85 50.2525
25.88 43.3095
25.91 37.2421
25.94 31.3637
25.97 26.8109
26 22.9031
26.03 18.8959
26.06 16.4007
26.09 14.8048
26.12 13.0415
26.15 11.888
26.18 10.6891
26.21 9.90995
26.24 9.0922
26.27 8.00167
26.3 8.30562
26.33 8.12824
26.36 7.88234
26.39 6.94562
26.42 6.92424
26.45 6.74679
26.48 7.19014
26.51 7.18707
26.54 7.10422
26.57 6.37095
26.6 6.46115
26.63 6.51907
26.66 6.26914
26.69 6.68693
26.72 6.62017
26.75 6.76613
26.78 6.6241
26.81 6.99865
26.84 7.55251
26.87 8.35358
26.9 8.00838
26.93 8.24109
26.96 8.37964
26.99 8.25504
27.02 8.45909
27.05 8.63846
27.08 8.58194
27.11 9.12389
27.14 9.3953
27.17 9.60026
27.2 9.69401
27.23 10.7247
27.26 11.0091
27.29 12.0518
27.32 13.1882
27.35 14.7825
27.38 17.5226
27.41 21.4601
27.44 26.5304
27.47 32.3203
27.5 39.1611
27.53 47.2821
27.56 56.5273
27.59 65.8354
27.62 76.6573
27.65 87.7527
27.68 98.6368
27.71 108.47
27.74 119.032
27.77 127.607
27.8 133.537
27.83 137.852
27.86 140.606
27.89 142.25
27.92 140.763
27.95 136.659
27.98 130.086
28.01 123.637
28.04 115.156
28.07 105.604
28.1 96.4076
28.13 86.7746
28.16 75.7307
28.19 66.5747
28.22 58.2211
28.25 50.1927
28.28 42.6682
28.31 36.7166
28.34 31.0132
28.37 26.8463
28.4 23.3791
28.43 19.8782
28.46 17.7294
28.49 16.0451
28.52 14.5606
28.55 13.4657
28.58 12.5759
28.61 11.7195
28.64 11.0913
28.67 10.2578
28.7 9.78621
28.73 9.49568
28.76 8.58708
28.79 8.21657
28.82 7.63514
28.85 7.85936
28.88 6.95931
28.91 5.97932
28.94 5.68432
28.97 5.8256
29 5.31732
29.03 5.11592
29.06 4.35906
29.09 4.24195
29.12 4.2896
29.15 3.94125
29.18 3.27781
29.21 3.01963
29.24 3.23564
29.27 3.21695
29.3 2.83859
29.33 2.48778
29.36 2.46375
29.39 2.16026
29.42 1.53061
29.45 1.47807
29.48 1.23578
29.51 1.0424
29.54 0.579366
29.57 0.715674
29.6 0.567069
29.63 0.490544
29.66 0.496393
29.69 0.311886
29.72 0.0135834
29.75 0.152064
29.78 0.505225
29.81 -0.0312633
29.84 -0.124348
29.87 0.511483
29.9 0.727685
29.93 0.947468
29.96 1.09203
29.99 0.668536
30.02 0.619696
30.05 0.833992
30.08 1.10528
30.11 0.738591
30.14 0.5109
30.17 0.533367
30.2 0.529321
30.23 0.815019
30.26 1.32408
30.29 1.25785
30.32 1.1718
30.35 0.892732
30.38 0.905341
30.41 1.39943
30.44 1.51483
30.47 0.571546
30.5 0.726148
30.53 1.2002
30.56 0.598062
30.59 0.986746
30.62 0.884342
30.65 1.44043
30.68 1.45177
30.71 1.88231
30.74 1.65966
30.77 1.42442
30.8 2.3757
30.83 2.98705
30.86 3.66805
30.89 4.68712
30.92 5.06306
30.95 5.78643
30.98 7.01149
31.01 7.77286
31.04 9.00949
31.07 9.80903
31.1 10.4686
31.13 11.1841
31.16 12.041
31.19 11.8249
31.22 12.3189
31.25 12.3258
31.28 12.4753
31.31 12.253
31.34 11.6428
31.37 11.2892
31.4 11.0956
31.43 10.3689
31.46 9.33789
31.49 8.80329
31.52 8.263
31.55 7.80306
31.58 6.9163
31.61 6.14129
31.64 5.73971
31.67 5.37304
31.7 5.1628
31.73 4.69196
31.76 4.09912
31.79 4.04396
31.82 3.94932
31.85 4.3201
31.88 4.6027
31.91 4.79114
31.94 4.95437
31.97 5.42126
32 6.49702
32.03 7.94394
32.06 10.0504
32.09 11.3562
32.12 12.4898
32.15 14.6807
32.18 16.872
32.21 18.574
32.24 20.3606
32.27 21.5005
32.3 23.5706
32.33 25.6085
32.36 27.3952
32.39 28.2155
32.42 28.8256
32.45 29.8067
32.48 29.8615
32.51 29.3426
32.54 29.1989
32.57 28.3378
32.6 27.0063
32.63 25.7849
32.66 25.2826
32.69 22.8061
32.72 21.4513
32.75 19.7344
32.78 17.9757
32.81 16.1052
32.84 15.0161
32.87 13.4539
32.9 12.0254
32.93 11.4004
32.96 10.2916
32.99 9.21003
33.02 8.02889
33.05 7.23037
33.08 6.66452
33.11 5.26392
33.14 4.18519
33.17 3.97111
33.2 3.15358
33.23 2.58983
33.26 1.88609
33.29 1.95433
33.32 1.9416
33.35 1.70243
33.38 1.73244
33.41 1.5892
33.44 1.16351
33.47 0.851739
33.5 0.873758
33.53 0.725005
33.56 0.329439
33.59 0.884398
33.62 0.862766
33.65 0.422286
33.68 0.529648
33.71 -0.0153325
33.74 -0.00516201
33.77 0.176651
33.8 0.181945
33.83 0.339226
33.86 0.429
33.89 0.252643
33.92 0.572774
33.95 0.668145
33.98 0.732586
34.01 1.42185
34.04 2.30112
34.07 2.94622
34.1 3.4785
34.13 3.57045
34.16 4.16905
34.19 4.25767
34.22 4.6534
34.25 4.69492
34.28 5.50809
34.31 6.02992
34.34 5.94607
34.37 5.38978
34.4 5.14966
34.43 5.36342
34.46 5.30515
34.49 4.54944
34.52 3.96947
34.55 3.44635
34.58 3.15997
34.61 2.42633
34.64 2.35379
34.67 2.2974
34.7 1.97515
34.73 1.53317
34.76 1.49212
34.79 1.62005
34.82 1.12435
34.85 0.930888
34.88 0.668148
34.91 0.758516
34.94 0.268915
34.97 0.271245
35 0.381426
35.03 0.166926
35.06 -0.185908
35.09 -0.0828432
35.12 0.143268
35.15 -0.0829607
35.18 -0.0326761
35.21 -0.0248074
35.24 0.192657
35.27 -0.0848682
35.3 -0.0278855
35.33 0.157519
35.36 0.256478
35.39 0.206199
35.42 0.341665
35.45 1.03258
35.48 0.861207
35.51 0.440133
35.54 0.174362
35.57 0.283603
35.6 0.334175
35.63 0.188757
35.66 0.203631
35.69 0.213558
35.72 0.325836
35.75 0.334336
35.78 0.335639
35.81 -0.0719369
35.84 0.228401
35.87 0.45305
35.9 0.415456
35.93 -0.0112803
35.96 -0.145267
35.99 -0.233719
36.02 0.350579
36.05 0.282836
36.08 0.435522
36.11 0.723948
36.14 0.676336
36.17 0.561417
36.2 0.898391
36.23 0.717049
36.26 0.485643
36.29 0.723598
36.32 0.838226
36.35 0.724976
36.38 1.09414
36.41 1.59124
36.44 1.83315
36.47 1.88967
36.5 2.45284
36.53 2.3315
36.56 1.90338
36.59 1.74666
36.62 2.04175
36.65 2.32811
36.68 2.96043
36.71 3.50136
36.74 4.33643
36.77 4.82939
36.8 5.32069
36.83 6.12535
36.86 6.49498
36.89 7.69931
36.92 8.3289
36.95 9.49647
36.98 10.6693
37.01 11.5346
37.04 11.9501
37.07 12.2297
37.1 12.3315
37.13 12.5541
37.16 12.7206
37.19 13.4088
37.22 13.4316
37.25 12.8801
37.28 12.5792
37.31 11.9399
37.34 11.2166
37.37 10.5028
37.4 10.264
37.43 9.6891
37.46 9.03387
37.49 8.44843
37.52 8.3527
37.55 8.25648
37.58 7.98656
37.61 7.5505
37.64 8.07474
37.67 9.45304
37.7 10.1124
37.73 10.9332
37.76 12.0966
37.79 13.4912
37.82 15.0932
37.85 17.7499
37.88 20.1671
37.91 23.1182
37.94 26.3493
37.97 28.3426
38 30.0034
38.03 33.1604
38.06 35.3771
38.09 36.6626
38.12 37.6539
38.15 38.471
38.18 39.0224
38.21 38.2945
38.24 37.5195
38.27 36.6649
38.3 34.6035
38.33 32.3772
38.36 30.219
38.39 28.0086
38.42 25.6046
38.45 23.4646
38.48 21.153
38.51 18.7724
38.54 16.5657
38.57 14.737
38.6 12.4654
38.63 10.8756
38.66 9.19002
38.69 7.70174
38.72 6.74914
38.75 5.82654
38.78 5.42687
38.81 4.89073
38.84 4.42449
38.87 4.28414
38.9 4.01686
38.93 4.00391
38.96 4.13119
38.99 3.64296
39.02 3.29865
39.05 3.49889
39.08 3.31945
39.11 3.82669
39.14 3.76876
39.17 4.03474
39.2 4.0659
39.23 3.5655
39.26 3.58245
39.29 3.64184
39.32 4.06195
39.35 4.50802
39.38 4.79974
39.41 5.29233
39.44 5.92838
39.47 6.75816
39.5 7.29772
39.53 8.05555
39.56 8.78311
39.59 9.96857
39.62 10.8176
39.65 11.488
39.68 12.629
39.71 13.2715
39.74 13.5775
39.77 14.0895
39.8 14.2854
39.83 14.1843
39.86 14.1025
39.89 14.2124
39.92 13.9782
39.95 13.7001
39.98 13.2454
40.01 12.5961
40.04 11.3736
40.07 10.5584
40.1 9.7373
40.13 9.03498
40.16 8.43965
40.19 7.85657
40.22 7.19404
40.25 6.04925
40.28 5.57896
40.31 5.31301
40.34 4.57231
40.37 3.9425
40.4 3.46326
40.43 2.89099
40.46 2.39022
40.49 2.13722
40.52 2.10823
40.55 2.04645
40.58 1.95205
40.61 2.30117
40.64 1.97758
40.67 1.70968
40.7 1.4567
40.73 1.28547
40.76 1.28525
40.79 1.20665
40.82 0.914742
40.85 0.839613
40.88 1.04313
40.91 0.72529
40.94 0.306917
40.97 0.568539
41 0.78552
41.03 0.853088
41.06 0.624278
41.09 0.626661
41.12 0.80521
41.15 0.235124
41.18 -0.179634
41.21 0.0398527
41.24 0.205496
41.27 0.0391226
41.3 0.125536
41.33 0.329755
41.36 0.405758
41.39 0.432045
41.42 0.364462
41.45 0.441608
41.48 0.191823
41.51 0.380516
41.54 -0.0986756
41.57 0.0994987
41.6 0.364285
41.63 0.244327
41.66 0.113425
41.69 0.111487
41.72 -0.233849
41.75 -0.235881
41.78 0.364008
41.81 0.638369
41.84 0.291698
41.87 0.0286254
41.9 0.273195
41.93 0.816505
41.96 1.22245
41.99 1.81912
42.02 2.25227
42.05 2.43865
42.08 2.45179
42.11 3.22981
42.14 3.74736
42.17 4.04632
42.2 3.93062
42.23 4.44249
42.26 4.31305
42.29 4.97469
42.32 5.59246
42.35 5.82541
42.38 5.93047
42.41 5.83766
42.44 5.6921
42.47 5.21283
42.5 5.0376
42.53 5.12476
42.56 4.68424
42.59 4.27251
42.62 4.29467
42.65 4.59163
42.68 4.92665
42.71 4.79257
42.74 4.82801
42.77 5.08278
42.8 5.22466
42.83 6.25028
42.86 6.69581
42.89 7.21703
42.92 8.62345
42.95 9.27355
42.98 10.3408
43.01 11.6706
43.04 13.3575
43.07 14.2611
43.1 14.6615
43.13 15.9645
43.16 16.5884
43.19 17.6985
43.22 19.1366
43.25 19.1273
43.28 19.1318
43.31 18.8866
43.34 18.5213
43.37 17.7968
43.4 17.4886
43.43 16.5585
43.46 16.3015
43.49 15.5444
43.52 14.9769
43.55 13.961
43.58 12.893
43.61 11.4401
43.64 9.88892
43.67 9.08595
43.7 7.59341
43.73 6.98764
43.76 6.1521
43.79 5.44431
43.82 5.29378
43.85 4.1945
43.88 3.47654
43.91 2.82661
43.94 2.30458
43.97 2.69285
44 2.645
44.03 2.04545
44.06 1.46901
44.09 1.56522
44.12 1.16662
44.15 1.02192
44.18 1.26458
44.21 1.20438
44.24 1.1264
44.27 0.80269
44.3 1.37575
44.33 1.66201
44.36 1.76719
44.39 1.7776
44.42 2.06782
44.45 2.55637
44.48 2.77308
44.51 2.88145
44.54 2.99191
44.57 3.59349
44.6 3.98705
44.63 4.08661
44.66 4.15797
44.69 4.40131
44.72 4.33971
44.75 4.24982
44.78 4.38832
44.81 4.47044
44.84 3.99424
44.87 4.32522
44.9 4.04066
44.93 4.12968
44.96 3.98912
44.99 3.41657
45.02 3.07879
45.05 2.61502
45.08 2.10835
45.11 2.1557
45.14 2.31246
45.17 2.18192
45.2 2.10349
45.23 1.54089
45.26 1.19306
45.29 1.02619
45.32 1.1062
45.35 0.75453
45.38 0.670633
45.41 0.766867
45.44 0.364849
45.47 0.529423
45.5 0.504199
45.53 0.438343
45.56 0.815628
45.59 0.662844
45.62 0.525759
45.65 0.0705389
45.68 -0.150962
45.71 -0.055757
45.74 -0.156249
45.77 0.00646375
45.8 0.186988
45.83 0.781055
45.86 0.516529
45.89 0.412694
45.92 0.235689
45.95 0.678792
45.98 0.435597
46.01 0.853796
46.04 0.696746
46.07 0.597039
46.1 0.433991
46.13 0.465521
46.16 0.370851
46.19 0.162134
46.22 -0.225221
46.25 0.268142
46.28 0.515931
46.31 0.596335
46.34 1.15064
46.37 1.07306
46.4 1.05915
46.43 1.22606
46.46 1.06474
46.49 0.795745
46.52 1.00233
46.55 0.961878
46.58 1.32425
46.61 1.21819
46.64 0.920587
46.67 1.27061
46.7 1.40257
46.73 1.43316
46.76 1.5466
46.79 1.96498
46.82 2.29207
46.85 2.60564
46.88 2.5993
46.91 2.813
46.94 3.03864
46.97 3.05531
47 2.46401
47.03 2.24983
47.06 2.61442
47.09 3.13968
47.12 2.86909
47.15 2.62863
47.18 2.71567
47.21 2.93053
47.24 3.00361
47.27 2.7951
47.3 2.75384
47.33 3.24762
47.36 3.49719
47.39 3.75272
47.42 3.45648
47.45 4.03291
47.48 4.62458
47.51 5.2151
47.54 5.91548
47.57 6.38692
47.6 6.71731
47.63 6.75373
47.66 7.50134
47.69 8.18093
47.72 8.93582
47.75 9.12009
47.78 9.56678
47.81 9.61059
47.84 10.024
47.87 9.80826
47.9 10.0565
47.93 10.5521
47.96 9.65526
47.99 10.3146
48.02 10.078
48.05 9.1683
48.08 8.86775
48.11 8.34084
48.14 7.20327
48.17 6.64385
48.2 6.5372
48.23 6.11422
48.26 5.55394
48.29 4.98795
48.32 4.01329
48.35 3.7097
48.38 3.6183
48.41 3.63857
48.44 3.51388
48.47 3.25198
48.5 2.96536
48.53 2.58328
48.56 2.58737
48.59 2.15533
48.62 2.17803
48.65 2.18766
48.68 2.6761
48.71 2.81913
48.74 3.19581
48.77 3.66535
48.8 4.10996
48.83 4.73712
48.86 5.96198
48.89 6.95758
48.92 7.39881
48.95 8.85417
48.98 9.91869
49.01 11.2104
49.04 11.8692
49.07 13.4398
49.1 15.1056
49.13 15.1067
49.16 15.6583
49.19 15.6935
49.22 15.8489
49.25 17.3399
49.28 17.9537
49.31 17.3914
49.34 17.5551
49.37 16.9523
49.4 16.7256
49.43 16.3064
49.46 16.0664
49.49 15.0702
49.52 14.3751
49.55 12.9977
49.58 11.7891
49.61 10.6076
49.64 9.97314
49.67 9.11237
49.7 7.93736
49.73 6.79155
49.76 6.03177
49.79 5.72148
49.82 4.73788
49.85 3.73596
49.88 3.2746
49.91 2.82389
49.94 2.61492
49.97 2.05298
50 1.45842
50.03 1.24784
50.06 1.01182
50.09 0.591874
50.12 0.340847
50.15 0.62708
50.18 0.935204
50.21 0.572711
50.24 0.844351
50.27 0.796584
50.3 0.634829
50.33 0.00193414
50.36 0.148734
50.39 0.119589
50.42 0.163315
50.45 0.107715
50.48 0.0238222
50.51 0.357603
50.54 0.470638
50.57 0.2908
50.6 -0.0535356
50.63 -0.108587
50.66 0.0166702
50.69 0.191351
50.72 0.279881
50.75 0.319154
50.78 -0.0549564
50.81 -0.0490591
50.84 0.190242
50.87 -0.157529
50.9 -0.0155925
50.93 0.326232
50.96 0.0801596
50.99 0.0369408
51.02 -0.105724
51.05 -0.172028
51.08 0.423264
51.11 0.946609
51.14 0.525484
51.17 0.598127
51.2 0.701113
51.23 0.759401
51.26 0.588433
51.29 1.32779
51.32 1.91807
51.35 1.62861
51.38 1.34675
51.41 1.08986
51.44 1.00319
51.47 0.929496
51.5 1.15514
51.53 1.4307
51.56 0.754753
51.59 0.578191
51.62 0.490978
51.65 0.315474
51.68 -0.119442
51.71 0.0753005
51.74 0.0505948
51.77 0.114207
51.8 -0.246249
51.83 0.0159051
51.86 0.385217
51.89 -0.0283204
51.92 -0.108989
51.95 -0.0289862
51.96 0