File: Data/KMK242/pXRD/KMK242.xy
'Id: "" Comment: "Integrate frame JR_1112_01_0001.sfrmwith cursor Slice Cursor #3" Operator: "Artemisserver" Anode: "Mo" Scantype: "TwoTheta" TimePerStep: "240"
7.04 0
7.075 -0.241735
7.11 0.120613
7.145 -0.366899
7.18 0.173771
7.215 0.44112
7.25 -0.175612
7.285 -0.0202522
7.32 -0.357304
7.355 0.342253
7.39 -0.127485
7.425 -0.040215
7.46 -0.223241
7.495 -0.150172
7.53 0.559458
7.565 0.437336
7.6 1.05384
7.635 1.69908
7.67 1.71469
7.705 1.58984
7.74 2.21036
7.775 2.81353
7.81 2.42254
7.845 2.59216
7.88 2.40085
7.915 3.274
7.95 3.82317
7.985 4.82174
8.02 4.79463
8.055 5.07825
8.09 5.53952
8.125 5.85368
8.16 7.05017
8.195 9.01651
8.23 10.8555
8.265 14.0681
8.3 15.6632
8.335 17.943
8.37 20.1691
8.405 22.3858
8.44 24.3398
8.475 24.893
8.51 24.2284
8.545 22.444
8.58 21.6548
8.615 19.4329
8.65 17.7918
8.685 14.9629
8.72 12.9954
8.755 11.3718
8.79 10.4065
8.825 9.36951
8.86 9.03476
8.895 8.58817
8.93 8.1275
8.965 7.88317
9 8.81868
9.035 9.0293
9.07 8.9886
9.105 9.02904
9.14 8.02693
9.175 8.02303
9.21 7.59479
9.245 8.53085
9.28 9.35544
9.315 7.9654
9.35 8.133
9.385 8.17543
9.42 8.49233
9.455 7.89388
9.49 7.55886
9.525 7.0262
9.56 6.68994
9.595 6.69217
9.63 6.06135
9.665 6.08372
9.7 6.0115
9.735 5.33066
9.77 5.39795
9.805 5.80814
9.84 5.64926
9.875 5.26377
9.91 5.20636
9.945 4.59105
9.98 4.32745
10.015 3.85767
10.05 3.54472
10.085 3.06133
10.12 3.29148
10.155 3.30737
10.19 3.28123
10.225 2.84307
10.26 3.08598
10.295 2.4458
10.33 2.38986
10.365 1.79875
10.4 1.92905
10.435 1.49563
10.47 2.07954
10.505 1.97256
10.54 2.5655
10.575 3.77503
10.61 3.99013
10.645 4.50204
10.68 5.45264
10.715 6.46934
10.75 7.22402
10.785 8.92969
10.82 9.37754
10.855 10.535
10.89 10.6119
10.925 10.991
10.96 10.8943
10.995 10.7882
11.03 10.1889
11.065 9.15406
11.1 7.71503
11.135 6.42108
11.17 5.78722
11.205 4.4624
11.24 3.23258
11.275 2.43711
11.31 1.71179
11.345 1.57126
11.38 1.23263
11.415 1.11153
11.45 1.42411
11.485 1.60377
11.52 1.10514
11.555 0.72027
11.59 1.4231
11.625 1.75833
11.66 2.01809
11.695 2.89993
11.73 3.7291
11.765 4.85562
11.8 6.47826
11.835 7.70724
11.87 7.99628
11.905 8.76718
11.94 9.77922
11.975 10.8123
12.01 9.9941
12.045 9.29379
12.08 9.01583
12.115 9.1116
12.15 7.80862
12.185 6.44324
12.22 5.19494
12.255 4.22116
12.29 3.65577
12.325 3.08666
12.36 1.80787
12.395 0.768267
12.43 0.896017
12.465 0.189413
12.5 0.635322
12.535 0.599996
12.57 0.25752
12.605 0.790931
12.64 0.421384
12.675 0.492888
12.71 0.292271
12.745 -0.239447
12.78 0.00379416
12.815 -0.010758
12.85 0.511863
12.885 0.951525
12.92 0.785967
12.955 1.31441
12.99 1.66625
13.025 1.70428
13.06 1.37366
13.095 1.336
13.13 2.13504
13.165 2.57204
13.2 2.57938
13.235 2.81162
13.27 3.79482
13.305 4.60646
13.34 5.63345
13.375 7.48241
13.41 10.0838
13.445 14.1735
13.48 18.8487
13.515 26.8023
13.55 36.9971
13.585 50.8962
13.62 67.7544
13.655 87.0262
13.69 106.165
13.725 122.386
13.76 135.648
13.795 145.727
13.83 151.684
13.865 149.761
13.9 144.185
13.935 130.37
13.97 116.321
14.005 98.9854
14.04 81.0531
14.075 64.3298
14.11 50.2152
14.145 39.0886
14.18 30.1
14.215 23.6133
14.25 19.3495
14.285 16.1222
14.32 13.7365
14.355 11.7473
14.39 10.989
14.425 10.5837
14.46 9.96089
14.495 9.29289
14.53 8.80787
14.565 8.10257
14.6 8.11265
14.635 7.70437
14.67 7.12193
14.705 6.94496
14.74 6.84246
14.775 6.69812
14.81 6.38141
14.845 5.44145
14.88 5.01142
14.915 4.17254
14.95 4.54855
14.985 4.72652
15.02 5.21202
15.055 5.35373
15.09 5.22381
15.125 5.64267
15.16 6.68479
15.195 6.59537
15.23 6.72275
15.265 7.79825
15.3 8.92831
15.335 10.5791
15.37 11.7783
15.405 12.7318
15.44 13.6875
15.475 15.3552
15.51 16.8668
15.545 17.7821
15.58 19.509
15.615 21.5427
15.65 23.6658
15.685 25.9546
15.72 29.4055
15.755 33.2253
15.79 39.7366
15.825 48.6843
15.86 62.8868
15.895 82.8281
15.93 110.729
15.965 148.432
16 189.514
16.035 239.33
16.07 294.801
16.105 346.618
16.14 393.512
16.175 427.685
16.21 449.22
16.245 457.901
16.28 446.997
16.315 421.63
16.35 383.442
16.385 337.41
16.42 285.116
16.455 235.859
16.49 189.347
16.525 150.958
16.56 120.332
16.595 95.4091
16.63 78.8917
16.665 67.0433
16.7 59.3246
16.735 54.1064
16.77 51.4925
16.805 49.2308
16.84 47.2859
16.875 45.1143
16.91 43.2329
16.945 40.1899
16.98 36.9327
17.015 33.717
17.05 29.6831
17.085 25.517
17.12 21.9342
17.155 18.1219
17.19 14.6576
17.225 11.803
17.26 9.36198
17.295 7.85529
17.33 6.00506
17.365 4.67528
17.4 4.16945
17.435 4.12829
17.47 3.2665
17.505 3.53205
17.54 2.97906
17.575 2.65376
17.61 2.37429
17.645 2.16543
17.68 2.03679
17.715 1.8744
17.75 1.61097
17.785 1.50125
17.82 1.46213
17.855 1.58563
17.89 1.08555
17.925 0.909686
17.96 0.835045
17.995 0.377689
18.03 -0.10089
18.065 -0.157658
18.1 0.293919
18.135 0.0497679
18.17 0.250655
18.205 0.406317
18.24 0.296622
18.275 0.0825892
18.31 0.554283
18.345 0.477991
18.38 -0.189324
18.415 -0.0636089
18.45 0.150648
18.485 0.0545772
18.52 -0.0617378
18.555 0.29069
18.59 0.0416354
18.625 0.0208429
18.66 0.532238
18.695 0.626858
18.73 0.0340382
18.765 0.213275
18.8 0.417839
18.835 1.28734
18.87 0.964072
18.905 1.12811
18.94 1.64699
18.975 2.23609
19.01 2.20707
19.045 2.86805
19.08 3.81714
19.115 4.44875
19.15 5.77876
19.185 8.11246
19.22 9.52682
19.255 12.1868
19.29 16.5282
19.325 21.4319
19.36 28.7065
19.395 37.2081
19.43 46.5259
19.465 55.0596
19.5 65.0622
19.535 72.2659
19.57 78.8054
19.605 82.4032
19.64 81.1844
19.675 78.4813
19.71 73.4733
19.745 67.2508
19.78 58.5025
19.815 49.0513
19.85 39.518
19.885 30.5672
19.92 24.0849
19.955 18.8078
19.99 15.4733
20.025 12.3745
20.06 9.97513
20.095 8.33048
20.13 7.37053
20.165 6.7462
20.2 5.77814
20.235 5.0904
20.27 4.40309
20.305 4.48666
20.34 4.0415
20.375 3.56832
20.41 2.77199
20.445 2.07361
20.48 1.78222
20.515 2.02617
20.55 1.81637
20.585 1.57047
20.62 1.2354
20.655 1.25545
20.69 1.06328
20.725 1.03238
20.76 0.814605
20.795 0.477425
20.83 0.80412
20.865 0.289499
20.9 0.453726
20.935 0.807379
20.97 0.733207
21.005 0.727813
21.04 0.321053
21.075 -0.05724
21.11 0.156844
21.145 -0.0431873
21.18 0.0458836
21.215 0.120815
21.25 0.273661
21.285 0.253436
21.32 0.560767
21.355 0.447361
21.39 0.134859
21.425 0.542369
21.46 0.753409
21.495 0.77286
21.53 0.593774
21.565 0.369443
21.6 0.119261
21.635 -0.0664937
21.67 -0.0820444
21.705 -0.181752
21.74 -0.251867
21.775 -0.0566351
21.81 0.424922
21.845 0.198229
21.88 -0.179303
21.915 0.065039
21.95 0.168979
21.985 0.12946
22.02 0.199491
22.055 -0.038469
22.09 0.209201
22.125 0.137709
22.16 0.516183
22.195 0.983078
22.23 0.776226
22.265 1.30954
22.3 1.65202
22.335 2.09693
22.37 2.36908
22.405 2.62919
22.44 3.3794
22.475 3.48389
22.51 3.54231
22.545 3.88554
22.58 3.64323
22.615 3.8401
22.65 3.19503
22.685 2.24154
22.72 2.16415
22.755 1.62198
22.79 1.56893
22.825 1.30066
22.86 0.927253
22.895 0.70664
22.93 -0.134011
22.965 0.100797
23 0.88537
23.035 0.723154
23.07 0.845223
23.105 0.140568
23.14 0.254437
23.175 0.408947
23.21 0.423566
23.245 0.367439
23.28 0.29817
23.315 0.60027
23.35 1.13216
23.385 0.981699
23.42 0.758479
23.455 1.80773
23.49 2.38222
23.525 1.88173
23.56 2.49836
23.595 2.63123
23.63 3.78667
23.665 5.26851
23.7 7.61854
23.735 9.98615
23.77 14.1975
23.805 18.0041
23.84 23.2089
23.875 29.8082
23.91 35.9453
23.945 40.9699
23.98 44.8197
24.015 47.8051
24.05 50.7851
24.085 51.3811
24.12 50.4114
24.155 47.6612
24.19 44.6855
24.225 39.4138
24.26 33.9587
24.295 28.8775
24.33 24.2911
24.365 19.5574
24.4 16.0777
24.435 13.5172
24.47 11.6531
24.505 9.19649
24.54 7.83008
24.575 8.01508
24.61 7.71928
24.645 7.2675
24.68 7.84904
24.715 7.66113
24.75 7.55224
24.785 7.69358
24.82 7.36922
24.855 7.71198
24.89 8.20432
24.925 9.41466
24.96 10.7134
24.995 10.662
25.03 12.3197
25.065 13.6136
25.1 16.1855
25.135 19.5567
25.17 24.2364
25.205 31.0312
25.24 40.6856
25.275 51.4481
25.31 64.8807
25.345 80.4633
25.38 96.0892
25.415 110.71
25.45 125.933
25.485 138.477
25.52 147.029
25.555 150.315
25.59 146.959
25.625 141.613
25.66 132.847
25.695 118.509
25.73 103.211
25.765 86.9424
25.8 71.6772
25.835 58.8125
25.87 47.243
25.905 37.3546
25.94 30.1621
25.975 24.8354
26.01 20.9507
26.045 17.3396
26.08 15.494
26.115 13.9181
26.15 12.8126
26.185 12.1976
26.22 11.6518
26.255 10.0302
26.29 9.24828
26.325 9.42251
26.36 9.69499
26.395 9.34181
26.43 9.5529
26.465 9.27294
26.5 8.2534
26.535 7.64105
26.57 7.73854
26.605 8.02188
26.64 9.185
26.675 8.42032
26.71 8.59319
26.745 8.73639
26.78 8.88164
26.815 8.62921
26.85 9.66823
26.885 10.1299
26.92 10.4259
26.955 10.6558
26.99 11.1875
27.025 10.4924
27.06 11.0009
27.095 10.9202
27.13 10.5357
27.165 10.7618
27.2 10.8875
27.235 10.9948
27.27 11.7843
27.305 12.6161
27.34 13.8672
27.375 15.6728
27.41 19.1502
27.445 23.7708
27.48 31.0783
27.515 41.666
27.55 54.3687
27.585 69.8678
27.62 89.5312
27.655 111.116
27.69 133.446
27.725 154.74
27.76 173.695
27.795 190.347
27.83 201.8
27.865 205.781
27.9 204.794
27.935 197.809
27.97 185.561
28.005 168.436
28.04 148.998
28.075 129.73
28.11 110.39
28.145 91.1491
28.18 73.9854
28.215 59.7689
28.25 48.0652
28.285 38.5756
28.32 31.4131
28.355 26.5352
28.39 22.789
28.425 19.7022
28.46 18.1766
28.495 16.5465
28.53 15.5229
28.565 14.36
28.6 13.3095
28.635 12.2271
28.67 11.5826
28.705 10.9657
28.74 10.0571
28.775 9.19018
28.81 8.73676
28.845 8.5654
28.88 7.70783
28.915 6.73388
28.95 6.57174
28.985 6.59109
29.02 6.08238
29.055 5.60069
29.09 5.10731
29.125 4.39556
29.16 4.47535
29.195 4.39606
29.23 3.60826
29.265 2.76693
29.3 2.37441
29.335 2.80183
29.37 2.51586
29.405 2.0181
29.44 1.57443
29.475 0.927208
29.51 0.857563
29.545 0.643331
29.58 0.466322
29.615 0.58087
29.65 0.0156608
29.685 -0.179982
29.72 -0.181858
29.755 -0.125938
29.79 -0.195813
29.825 -0.0464863
29.86 -0.25019
29.895 0.0925829
29.93 0.197114
29.965 0.76481
30 0.169341
30.035 0.0201182
30.07 0.572594
30.105 0.493088
30.14 0.565523
30.175 0.467837
30.21 0.507742
30.245 0.895035
30.28 1.04441
30.315 1.23149
30.35 0.9276
30.385 1.41628
30.42 0.903451
30.455 0.993511
30.49 1.181
30.525 1.22153
30.56 1.3983
30.595 1.34231
30.63 1.1327
30.665 0.671684
30.7 0.594135
30.735 1.05534
30.77 1.19538
30.805 1.63948
30.84 1.74963
30.875 2.51947
30.91 4.20818
30.945 5.4611
30.98 7.07453
31.015 8.55384
31.05 11.258
31.085 13.1303
31.12 14.6744
31.155 16.4815
31.19 16.8719
31.225 17.9167
31.26 17.9964
31.295 17.0714
31.33 16.1472
31.365 15.5533
31.4 13.7171
31.435 12.6065
31.47 11.402
31.505 9.18749
31.54 7.64423
31.575 6.18815
31.61 5.21365
31.645 5.05018
31.68 4.10616
31.715 4.19062
31.75 3.36636
31.785 3.62886
31.82 3.49626
31.855 3.86569
31.89 3.99456
31.925 3.747
31.96 4.70936
31.995 5.72033
32.03 7.1419
32.065 9.53816
32.1 11.6725
32.135 15.2223
32.17 18.7157
32.205 22.171
32.24 26.2476
32.275 30.4838
32.31 35.1045
32.345 37.9705
32.38 39.6296
32.415 41.7644
32.45 41.2146
32.485 40.0892
32.52 39.4231
32.555 37.244
32.59 35.4604
32.625 32.3937
32.66 30.0409
32.695 27.5621
32.73 24.6611
32.765 21.7102
32.8 20.092
32.835 17.9723
32.87 15.9955
32.905 13.9156
32.94 12.4611
32.975 10.9752
33.01 8.95348
33.045 7.90306
33.08 6.79058
33.115 5.21599
33.15 4.10453
33.185 4.15388
33.22 2.99317
33.255 2.02864
33.29 1.68063
33.325 1.01544
33.36 0.909909
33.395 0.412607
33.43 0.420956
33.465 0.399281
33.5 0.142801
33.535 0.114808
33.57 0.143547
33.605 -0.060919
33.64 0.389736
33.675 0.327535
33.71 0.0513105
33.745 -0.0124313
33.78 0.028961
33.815 -0.22153
33.85 0.124166
33.885 0.359902
33.92 0.511893
33.955 0.794792
33.99 1.3787
34.025 1.55904
34.06 2.46174
34.095 3.23832
34.13 4.63224
34.165 5.22015
34.2 6.20851
34.235 6.9821
34.27 7.78205
34.305 7.35304
34.34 7.63733
34.375 7.83497
34.41 7.1017
34.445 6.75141
34.48 5.76144
34.515 4.79483
34.55 4.19195
34.585 3.93978
34.62 3.19488
34.655 2.47477
34.69 2.18844
34.725 1.5627
34.76 1.3119
34.795 0.897907
34.83 0.68915
34.865 0.573254
34.9 0.636063
34.935 0.417276
34.97 0.304228
35.005 0.164689
35.04 -0.0455567
35.075 0.192249
35.11 0.224211
35.145 0.322164
35.18 0.234988
35.215 0.165334
35.25 0.390224
35.285 0.324727
35.32 0.09178
35.355 0.255894
35.39 0.585456
35.425 0.113448
35.46 0.258907
35.495 -0.0405176
35.53 -0.209497
35.565 0.190346
35.6 -0.00328198
35.635 0.08545
35.67 0.00781534
35.705 0.148466
35.74 0.236601
35.775 0.102917
35.81 0.0918465
35.845 -0.0201085
35.88 0.143531
35.915 -0.137027
35.95 0.197293
35.985 -0.0570776
36.02 -0.121666
36.055 0.399052
36.09 0.412926
36.125 0.361435
36.16 0.983963
36.195 1.16084
36.23 1.33337
36.265 1.19856
36.3 1.88823
36.335 1.90229
36.37 1.56665
36.405 1.79365
36.44 2.38936
36.475 2.24898
36.51 1.76827
36.545 2.01643
36.58 2.48419
36.615 2.52927
36.65 2.5764
36.685 2.9839
36.72 3.4485
36.755 4.11496
36.79 5.45109
36.825 6.47872
36.86 7.69838
36.895 9.41593
36.93 11.2331
36.965 12.9273
37 15.1167
37.035 16.0833
37.07 16.4538
37.105 17.9982
37.14 18.2375
37.175 17.995
37.21 17.0321
37.245 16.6327
37.28 16.1791
37.315 14.8625
37.35 13.4038
37.385 12.0808
37.42 10.7537
37.455 10.1575
37.49 9.78945
37.525 8.544
37.56 7.87066
37.595 8.04038
37.63 7.88948
37.665 8.03925
37.7 9.1957
37.735 11.2344
37.77 13.6741
37.805 16.3275
37.84 20.2128
37.875 25.1894
37.91 29.9055
37.945 35.0756
37.98 39.838
38.015 44.3909
38.05 48.9195
38.085 52.4505
38.12 54.3181
38.155 54.9537
38.19 54.5026
38.225 52.8595
38.26 50.4907
38.295 47.2351
38.33 43.1786
38.365 38.3897
38.4 33.63
38.435 29.4387
38.47 24.964
38.505 20.6425
38.54 16.9539
38.575 13.8565
38.61 11.4714
38.645 9.6377
38.68 8.07969
38.715 6.83604
38.75 6.08116
38.785 5.40217
38.82 5.29598
38.855 4.53963
38.89 4.28468
38.925 4.42443
38.96 4.18917
38.995 4.16929
39.03 4.65213
39.065 4.54515
39.1 4.25105
39.135 3.9757
39.17 4.30521
39.205 4.02293
39.24 4.01876
39.275 4.24404
39.31 4.69754
39.345 4.65093
39.38 4.93501
39.415 5.33404
39.45 6.24421
39.485 7.4547
39.52 8.6624
39.555 10.4955
39.59 12.6721
39.625 14.5007
39.66 15.9779
39.695 17.212
39.73 18.7958
39.765 20.0008
39.8 20.1385
39.835 19.7959
39.87 19.5564
39.905 18.5421
39.94 17.8261
39.975 16.8244
40.01 16.0981
40.045 14.4246
40.08 12.8388
40.115 11.4476
40.15 10.0801
40.185 8.2557
40.22 6.95822
40.255 5.90686
40.29 5.24496
40.325 4.82193
40.36 4.39891
40.395 3.6804
40.43 3.17302
40.465 2.93668
40.5 2.76472
40.535 2.40972
40.57 2.21457
40.605 1.84744
40.64 1.88972
40.675 1.7434
40.71 1.40796
40.745 1.10653
40.78 1.18752
40.815 0.777756
40.85 0.38423
40.885 0.721424
40.92 0.666694
40.955 0.381378
40.99 0.128022
41.025 0.213193
41.06 -0.00416307
41.095 -0.23294
41.13 -0.1692
41.165 0.0436942
41.2 -0.086217
41.235 0.268897
41.27 -0.0417201
41.305 0.144973
41.34 0.0339371
41.375 -0.215262
41.41 0.258968
41.445 -0.188001
41.48 -0.0936201
41.515 0.284972
41.55 0.512782
41.585 0.0307012
41.62 0.00377283
41.655 0.282834
41.69 0.417174
41.725 0.695684
41.76 0.22386
41.795 0.434172
41.83 0.737763
41.865 0.831466
41.9 0.903756
41.935 1.0795
41.97 1.5377
42.005 1.922
42.04 2.32469
42.075 3.22883
42.11 3.80827
42.145 4.45255
42.18 5.24331
42.215 5.99897
42.25 6.13372
42.285 6.86887
42.32 7.35877
42.355 7.33533
42.39 7.15306
42.425 7.33046
42.46 7.02392
42.495 6.53101
42.53 6.44139
42.565 5.92236
42.6 5.64046
42.635 5.71912
42.67 5.75505
42.705 5.22685
42.74 5.07378
42.775 5.46305
42.81 5.72505
42.845 5.82535
42.88 7.99417
42.915 9.51372
42.95 11.2813
42.985 13.638
43.02 15.6256
43.055 18.329
43.09 20.2331
43.125 21.7138
43.16 22.9695
43.195 24.6016
43.23 25.7692
43.265 26.3789
43.3 26.6366
43.335 26.4036
43.37 25.4742
43.405 24.3128
43.44 22.5799
43.475 21.1191
43.51 19.3643
43.545 17.5743
43.58 16.0641
43.615 13.7995
43.65 11.5963
43.685 9.96059
43.72 8.2252
43.755 7.29849
43.79 6.31077
43.825 5.17114
43.86 4.38657
43.895 3.37429
43.93 2.90874
43.965 2.83447
44 2.067
44.035 1.90729
44.07 1.41728
44.105 0.944103
44.14 0.331189
44.175 1.28429
44.21 1.1426
44.245 1.06297
44.28 0.893881
44.315 1.0644
44.35 1.87597
44.385 2.10645
44.42 2.41106
44.455 3.02766
44.49 3.4918
44.525 3.76085
44.56 4.69614
44.595 4.98424
44.63 5.46144
44.665 5.79486
44.7 5.91427
44.735 6.60069
44.77 6.55862
44.805 5.84879
44.84 5.54737
44.875 5.38548
44.91 5.29115
44.945 4.96406
44.98 4.9349
45.015 4.06926
45.05 3.79638
45.085 2.78166
45.12 2.60725
45.155 2.16301
45.19 1.45186
45.225 1.32972
45.26 1.29737
45.295 0.938482
45.33 1.05181
45.365 0.747574
45.4 0.54998
45.435 0.580212
45.47 0.267256
45.505 0.334074
45.54 0.472109
45.575 0.448902
45.61 -0.16319
45.645 0.219822
45.68 0.195212
45.715 -0.104283
45.75 -0.0856865
45.785 -0.0101653
45.82 0.412628
45.855 0.538853
45.89 0.11781
45.925 -0.117389
45.96 0.0719649
45.995 0.527224
46.03 0.1199
46.065 0.450227
46.1 0.452237
46.135 0.165103
46.17 0.288433
46.205 0.30729
46.24 0.231973
46.275 0.200308
46.31 0.434764
46.345 0.517068
46.38 1.36319
46.415 1.41706
46.45 1.32733
46.485 1.31781
46.52 1.39195
46.555 1.18136
46.59 1.54332
46.625 0.990554
46.66 0.398271
46.695 1.12383
46.73 1.97615
46.765 1.69998
46.8 1.86418
46.835 2.12051
46.87 2.25935
46.905 3.08388
46.94 2.82252
46.975 2.95478
47.01 2.858
47.045 2.85772
47.08 2.9278
47.115 3.09461
47.15 3.17501
47.185 2.77934
47.22 3.66867
47.255 3.32477
47.29 3.58693
47.325 3.86514
47.36 4.17956
47.395 3.78999
47.43 4.18501
47.465 4.70044
47.5 4.85528
47.535 5.87973
47.57 6.92388
47.605 7.89397
47.64 9.16331
47.675 10.4361
47.71 11.5392
47.745 12.4939
47.78 12.9095
47.815 13.6514
47.85 14.0917
47.885 13.7928
47.92 14.2835
47.955 13.7573
47.99 12.7922
48.025 12.5207
48.06 11.4447
48.095 10.436
48.13 9.5889
48.165 8.13279
48.2 7.7405
48.235 6.75449
48.27 6.23098
48.305 5.02254
48.34 4.59902
48.375 4.28792
48.41 3.2001
48.445 3.06701
48.48 2.47514
48.515 2.11429
48.55 1.94568
48.585 2.28359
48.62 2.37805
48.655 2.35767
48.69 2.14015
48.725 2.64742
48.76 2.98595
48.795 3.5561
48.83 4.58437
48.865 6.33108
48.9 7.85249
48.935 9.37307
48.97 11.9239
49.005 13.6329
49.04 16.0435
49.075 17.7788
49.11 19.9167
49.145 21.9107
49.18 22.5723
49.215 23.3043
49.25 23.3067
49.285 24.3073
49.32 23.8428
49.355 22.8184
49.39 21.7951
49.425 20.5047
49.46 19.426
49.495 18.6585
49.53 17.1057
49.565 15.5615
49.6 14.0905
49.635 11.9274
49.67 10.3592
49.705 8.51936
49.74 6.92393
49.775 5.91111
49.81 4.61737
49.845 3.16083
49.88 2.54281
49.915 1.95879
49.95 1.36833
49.985 1.20395
50.02 0.683457
50.055 0.841411
50.09 0.803856
50.125 0.356296
50.16 -0.0750803
50.195 0.0459036
50.23 0.14136
50.265 0.112375
50.3 -0.129823
50.335 -0.174448
50.37 -0.225385
50.405 0.591723
50.44 0.644188
50.475 0.208893
50.51 0.0968908
50.545 0.377787
50.58 -0.0763477
50.615 0.0212902
50.65 0.492587
50.685 0.399334
50.72 0.0631344
50.755 0.0411027
50.79 -0.0882549
50.825 0.29122
50.86 0.662454
50.895 0.567701
50.93 0.490756
50.965 0.801528
51 1.06705
51.035 1.18287
51.07 1.21096
51.105 1.80677
51.14 3.14495
51.175 3.71046
51.21 3.80726
51.245 4.48052
51.28 3.81298
51.315 4.80013
51.35 5.62892
51.385 5.70931
51.42 6.10465
51.455 5.96981
51.49 5.42578
51.525 5.2233
51.56 5.60104
51.595 5.48424
51.63 5.59779
51.665 5.3248
51.7 5.17141
51.735 5.39318
51.77 5.46016
51.805 5.41144
51.84 5.65682
51.875 6.93059
51.91 6.95913
51.945 7.98477
51.98 9.15656
52.015 10.1215
52.05 11.1209
52.085 11.815
52.12 12.3273
52.155 12.2262
52.19 12.7468
52.225 12.9391
52.26 12.9925
52.295 12.5965
52.33 12.2027
52.365 11.2753
52.4 10.9933
52.435 10.8464
52.47 10.1988
52.505 9.42304
52.54 8.7456
52.575 7.73959
52.61 6.77898
52.645 5.81498
52.68 4.75017
52.715 4.10553
52.75 3.93906
52.785 3.4565
52.82 2.39654
52.855 2.3067
52.89 2.03165
52.925 1.2976
52.96 0.861967
52.995 0.798235
53.03 0.0449044
53.065 0.222429
53.1 0.0720992
53.135 0.0740294
53.17 -0.181017
53.205 -0.223875
53.235 0