File: Data/KMK254/pXRD/KMK254.xy
'Id: "" Comment: "Integrate frame JR_1048_03_0001.sfrmwith cursor Wedge Cursor #14" Operator: "XRAY" Anode: "Mo" Scantype: "TwoTheta" TimePerStep: "240"
10.075 0
10.105 -0.255987
10.135 1.12235
10.165 0.368377
10.195 1.96088
10.225 2.54814
10.255 2.25627
10.285 2.40249
10.315 1.41421
10.345 -0.337962
10.375 0.40183
10.405 0.335231
10.435 0.255428
10.465 0.00715056
10.495 0.735027
10.525 2.12757
10.555 1.61411
10.585 1.14094
10.615 2.51877
10.645 4.83435
10.675 3.78341
10.705 4.67811
10.735 6.45979
10.765 8.35683
10.795 8.71735
10.825 10.6044
10.855 11.1485
10.885 11.0327
10.915 11.3206
10.945 11.1337
10.975 10.7974
11.005 8.95576
11.035 8.61027
11.065 6.48295
11.095 6.37169
11.125 5.79121
11.155 5.359
11.185 3.87194
11.215 2.3566
11.245 1.69411
11.275 1.77008
11.305 1.5766
11.335 -0.028843
11.365 1.58189
11.395 1.21005
11.425 2.30197
11.455 0.333791
11.485 -0.341999
11.515 0.297645
11.545 0.690251
11.575 1.60727
11.605 1.18738
11.635 1.16124
11.665 3.4008
11.695 3.10697
11.725 4.48006
11.755 6.30417
11.785 6.78032
11.815 7.14707
11.845 9.47009
11.875 9.98735
11.905 11.6051
11.935 11.3179
11.965 12.2304
11.995 11.9838
12.025 12.428
12.055 12.4909
12.085 11
12.115 8.87974
12.145 8.38669
12.175 7.54973
12.205 6.4255
12.235 6.2181
12.265 4.61479
12.295 2.84709
12.325 3.42681
12.355 1.60589
12.385 0.947533
12.415 0.853573
12.445 0.785492
12.475 1.40846
12.505 -0.138213
12.535 1.01512
12.565 1.98413
12.595 1.9118
12.625 -0.168069
12.655 0.520617
12.685 0.0116654
12.715 0.905988
12.745 1.6293
12.775 1.49243
12.805 1.66711
12.835 1.35598
12.865 1.38771
12.895 1.5366
12.925 2.50108
12.955 3.06734
12.985 2.66788
13.015 3.6162
13.045 4.34142
13.075 4.98467
13.105 4.70638
13.135 4.42198
13.165 5.90198
13.195 7.49655
13.225 8.39256
13.255 9.64778
13.285 10.5566
13.315 11.2113
13.345 14.2569
13.375 19.9509
13.405 23.4807
13.435 30.8265
13.465 39.445
13.495 49.8923
13.525 62.8238
13.555 78.7072
13.585 94.9252
13.615 111.52
13.645 127.695
13.675 142.588
13.705 157.513
13.735 170.685
13.765 180.926
13.795 186.59
13.825 189.709
13.855 187.343
13.885 179.402
13.915 168.844
13.945 152.171
13.975 138.923
14.005 122.255
14.035 103.014
14.065 86.2394
14.095 71.4774
14.125 57.7392
14.155 45.9131
14.185 37.0387
14.215 32.2646
14.245 25.9869
14.275 21.8076
14.305 19.8082
14.335 18.8244
14.365 17.2833
14.395 16.5812
14.425 14.8402
14.455 13.5934
14.485 13.4528
14.515 13.2632
14.545 12.3343
14.575 11.3778
14.605 12.2117
14.635 11.7878
14.665 11.5695
14.695 11.1048
14.725 10.499
14.755 9.59186
14.785 9.54808
14.815 8.22072
14.845 8.3596
14.875 8.60165
14.905 8.51274
14.935 8.27682
14.965 8.82776
14.995 8.17036
15.025 8.82101
15.055 10.5755
15.085 10.183
15.115 11.4467
15.145 11.9604
15.175 12.4718
15.205 14.538
15.235 16.1417
15.265 17.2165
15.295 19.184
15.325 20.1914
15.355 21.598
15.385 23.9103
15.415 26.2148
15.445 28.6006
15.475 31.8763
15.505 34.1353
15.535 36.9487
15.565 40.1498
15.595 44.4131
15.625 49.2186
15.655 52.6984
15.685 55.8747
15.715 61.18
15.745 69.3228
15.775 81.8672
15.805 96.3535
15.835 116.092
15.865 140.573
15.895 170.569
15.925 206.902
15.955 252.126
15.985 303.026
16.015 352.495
16.045 403.536
16.075 452.421
16.105 496.225
16.135 530.245
16.165 562.279
16.195 574.239
16.225 579.585
16.255 568.375
16.285 549.245
16.315 515.579
16.345 475.496
16.375 428.359
16.405 378.924
16.435 331.622
16.465 284.096
16.495 239.159
16.525 195.151
16.555 161.917
16.585 133.73
16.615 111.144
16.645 94.7749
16.675 84.2888
16.705 75.8038
16.735 69.467
16.765 65.3244
16.795 61.7173
16.825 59.0507
16.855 56.393
16.885 53.0065
16.915 51.0591
16.945 49.0127
16.975 45.6869
17.005 41.073
17.035 37.1024
17.065 32.9399
17.095 28.4664
17.125 24.755
17.155 21.6269
17.185 18.3944
17.215 15.3544
17.245 13.4129
17.275 10.8386
17.305 8.98785
17.335 7.22019
17.365 6.35867
17.395 6.47207
17.425 5.30864
17.455 4.99493
17.485 4.71322
17.515 4.69348
17.545 4.27352
17.575 3.66834
17.605 3.34837
17.635 2.35346
17.665 2.68326
17.695 2.33141
17.725 1.78683
17.755 1.93345
17.785 1.64542
17.815 1.95773
17.845 1.46679
17.875 1.39571
17.905 1.24898
17.935 1.07565
17.965 0.999226
17.995 0.0219047
18.025 0.00214009
18.055 -0.0511881
18.085 0.261457
18.115 0.287644
18.145 0.0802771
18.175 -0.0616022
18.205 0.702696
18.235 1.26065
18.265 1.97718
18.295 1.54045
18.325 1.19657
18.355 0.811196
18.385 0.674753
18.415 0.250359
18.445 0.74074
18.475 0.991399
18.505 1.248
18.535 1.39346
18.565 1.8353
18.595 1.8129
18.625 2.2093
18.655 1.18813
18.685 1.68828
18.715 1.85609
18.745 2.52802
18.775 2.28088
18.805 2.35692
18.835 3.14612
18.865 3.28286
18.895 4.49652
18.925 5.52852
18.955 5.9566
18.985 5.63783
19.015 7.28345
19.045 9.17634
19.075 9.68866
19.105 10.9651
19.135 12.7761
19.165 15.1435
19.195 18.4446
19.225 21.9366
19.255 27.5382
19.285 33.7682
19.315 39.9463
19.345 48.5804
19.375 58.2115
19.405 67.1764
19.435 76.9441
19.465 87.4422
19.495 96.4422
19.525 102.965
19.555 107.003
19.585 108.679
19.615 107.472
19.645 104.765
19.675 101.332
19.705 94.3755
19.735 85.6172
19.765 76.87
19.795 68.0892
19.825 57.968
19.855 48.9236
19.885 39.8655
19.915 32.0018
19.945 25.3041
19.975 20.8543
20.005 17.5493
20.035 14.0258
20.065 12.2188
20.095 9.92372
20.125 8.82061
20.155 8.29986
20.185 7.09081
20.215 7.09085
20.245 6.07187
20.275 5.22138
20.305 5.1779
20.335 5.16545
20.365 4.72633
20.395 4.32001
20.425 2.936
20.455 2.41959
20.485 2.34857
20.515 2.08572
20.545 1.88446
20.575 1.09657
20.605 1.16492
20.635 1.28885
20.665 1.61925
20.695 1.41597
20.725 2.01908
20.755 2.03205
20.785 1.19352
20.815 0.788737
20.845 1.10297
20.875 0.460968
20.905 0.811919
20.935 0.512636
20.965 -0.121671
20.995 0.698378
21.025 0.465214
21.055 1.14989
21.085 0.768377
21.115 0.121947
21.145 -0.134964
21.175 0.512497
21.205 0.688182
21.235 0.0823859
21.265 0.293528
21.295 -0.0318851
21.325 0.634506
21.355 1.31127
21.385 1.59643
21.415 1.60492
21.445 1.37278
21.475 0.693508
21.505 0.307146
21.535 0.238338
21.565 0.519635
21.595 0.31185
21.625 1.13631
21.655 1.0027
21.685 0.997277
21.715 0.559355
21.745 0.806687
21.775 -0.0074603
21.805 0.406542
21.835 0.8675
21.865 0.917139
21.895 1.05847
21.925 0.567588
21.955 0.501317
21.985 0.247573
22.015 0.319572
22.045 0.670026
22.075 0.241891
22.105 0.788486
22.135 1.49588
22.165 1.97833
22.195 1.50335
22.225 2.48197
22.255 2.82648
22.285 2.44964
22.315 3.34651
22.345 3.49066
22.375 3.73792
22.405 4.49019
22.435 4.29964
22.465 3.74291
22.495 4.34728
22.525 4.50013
22.555 4.46403
22.585 3.86019
22.615 3.85032
22.645 3.63426
22.675 3.12593
22.705 2.1214
22.735 1.62581
22.765 1.32561
22.795 0.555528
22.825 0.568144
22.855 0.610517
22.885 0.515013
22.915 0.666899
22.945 1.52495
22.975 1.47992
23.005 1.33224
23.035 1.37705
23.065 1.32809
23.095 1.51073
23.125 1.40298
23.155 1.59975
23.185 2.1267
23.215 1.99702
23.245 2.20648
23.275 2.46194
23.305 2.93804
23.335 2.89313
23.365 2.67752
23.395 3.29549
23.425 4.02377
23.455 4.08966
23.485 4.68798
23.515 5.43431
23.545 5.82101
23.575 6.54543
23.605 8.3952
23.635 10.4238
23.665 12.7424
23.695 14.327
23.725 20.0258
23.755 24.5072
23.785 28.8312
23.815 34.3765
23.845 40.0534
23.875 45.811
23.905 50.0044
23.935 56.826
23.965 62.7782
23.995 65.0683
24.025 67.4127
24.055 66.9128
24.085 64.8462
24.115 62.4588
24.145 60.4079
24.175 56.8483
24.205 52.9711
24.235 47.3439
24.265 42.3538
24.295 37.0577
24.325 33.2703
24.355 29.0701
24.385 24.9006
24.415 21.2842
24.445 18.9346
24.475 17.292
24.505 16.2341
24.535 15.2326
24.565 13.2806
24.595 13.3709
24.625 12.966
24.655 13.5831
24.685 13.3541
24.715 13.7631
24.745 14.7271
24.775 14.9115
24.805 14.9568
24.835 16.2079
24.865 16.8669
24.895 18.2518
24.925 19.9496
24.955 20.7358
24.985 22.6226
25.015 24.8121
25.045 26.9761
25.075 30.0303
25.105 34.7233
25.135 41.1182
25.165 48.8501
25.195 58.4884
25.225 69.2419
25.255 80.4344
25.285 96.4741
25.315 113.134
25.345 129.321
25.375 146.422
25.405 160.15
25.435 172.374
25.465 182.511
25.495 193.021
25.525 195.46
25.555 194.86
25.585 191.074
25.615 180.841
25.645 168.516
25.675 156.171
25.705 141.331
25.735 124.588
25.765 108.525
25.795 92.9911
25.825 77.6697
25.855 64.9973
25.885 54.233
25.915 44.4552
25.945 37.1614
25.975 32.2594
26.005 26.6896
26.035 23.2895
26.065 20.8737
26.095 19.5254
26.125 17.9005
26.155 16.1778
26.185 16.0022
26.215 15.2153
26.245 13.8282
26.275 13.1961
26.305 13.8059
26.335 12.6551
26.365 12.2397
26.395 11.6453
26.425 12.289
26.455 11.5659
26.485 12.4368
26.515 13.2185
26.545 12.6877
26.575 13.0942
26.605 13.4532
26.635 13.0084
26.665 13.1368
26.695 13.888
26.725 14.5992
26.755 16.0703
26.785 16.0064
26.815 16.8887
26.845 16.8958
26.875 17.6016
26.905 17.8576
26.935 18.8858
26.965 18.803
26.995 19.833
27.025 20.2252
27.055 20.4885
27.085 20.9024
27.115 20.9995
27.145 21.5396
27.175 22.4001
27.205 22.869
27.235 23.8086
27.265 25.3018
27.295 27.4606
27.325 29.8399
27.355 32.8235
27.385 37.6595
27.415 44.7566
27.445 53.8278
27.475 65.6259
27.505 80.3182
27.535 96.987
27.565 115.722
27.595 136.387
27.625 158.806
27.655 182.984
27.685 205.218
27.715 225.016
27.745 244.516
27.775 258.768
27.805 267.312
27.835 274.07
27.865 275.021
27.895 269.533
27.925 257.288
27.955 243.66
27.985 227.03
28.015 206.213
28.045 184.227
28.075 161.89
28.105 140.839
28.135 120.579
28.165 102.182
28.195 85.4302
28.225 71.5716
28.255 60.4628
28.285 49.6229
28.315 41.7438
28.345 35.8316
28.375 30.9835
28.405 26.8375
28.435 24.529
28.465 21.7989
28.495 19.5213
28.525 18.2251
28.555 16.407
28.585 16.1595
28.615 14.7097
28.645 13.8813
28.675 13.3822
28.705 12.3955
28.735 12.0168
28.765 11.3192
28.795 10.5152
28.825 9.64657
28.855 9.30437
28.885 8.4462
28.915 8.25859
28.945 7.80802
28.975 7.06388
29.005 7.57276
29.035 7.00632
29.065 6.98783
29.095 6.39963
29.125 5.60728
29.155 5.28378
29.185 4.79332
29.215 4.26025
29.245 3.46112
29.275 2.92748
29.305 3.07712
29.335 2.79026
29.365 2.45306
29.395 1.82483
29.425 1.87579
29.455 1.60761
29.485 0.766747
29.515 0.533054
29.545 0.585727
29.575 0.605724
29.605 0.0789376
29.635 0.0208071
29.665 0.11128
29.695 0.29257
29.725 -0.208758
29.755 0.177757
29.785 -0.276901
29.815 -0.172386
29.845 0.235909
29.875 0.839581
29.905 0.809453
29.935 0.697602
29.965 0.804941
29.995 0.549472
30.025 1.02266
30.055 1.12547
30.085 0.958474
30.115 0.982206
30.145 1.47089
30.175 1.61823
30.205 0.959962
30.235 0.980593
30.265 1.23965
30.295 1.20843
30.325 1.37462
30.355 1.89607
30.385 2.44371
30.415 2.90418
30.445 2.97631
30.475 2.61253
30.505 2.10024
30.535 2.15302
30.565 2.3543
30.595 1.88742
30.625 1.96784
30.655 2.31932
30.685 2.11622
30.715 2.70517
30.745 2.9113
30.775 2.8533
30.805 4.37497
30.835 5.21289
30.865 5.94046
30.895 8.18495
30.925 9.53718
30.955 10.8709
30.985 13.3866
31.015 15.4597
31.045 17.9131
31.075 19.7729
31.105 21.4647
31.135 22.9125
31.165 23.9171
31.195 25.306
31.225 25.56
31.255 23.3951
31.285 23.0014
31.315 22.2074
31.345 21.8648
31.375 20.5252
31.405 19.4093
31.435 17.7111
31.465 15.7504
31.495 14.3162
31.525 12.6803
31.555 11.7415
31.585 9.66756
31.615 9.07902
31.645 8.00517
31.675 7.35171
31.705 7.17479
31.735 6.95165
31.765 6.83174
31.795 6.47631
31.825 6.74425
31.855 7.16964
31.885 8.14996
31.915 9.03322
31.945 9.36764
31.975 10.7654
32.005 12.4091
32.035 16.6003
32.065 20.2587
32.095 23.7204
32.125 27.1609
32.155 30.8705
32.185 35.9983
32.215 40.5172
32.245 43.9036
32.275 46.7205
32.305 50.6088
32.335 54.1576
32.365 55.5875
32.395 57.0807
32.425 57.0652
32.455 55.7102
32.485 55.2116
32.515 53.4922
32.545 50.5341
32.575 48.2989
32.605 45.5403
32.635 41.3067
32.665 38.6871
32.695 36.4927
32.725 34.2292
32.755 30.3718
32.785 27.2128
32.815 24.5732
32.845 22.001
32.875 19.8869
32.905 18.204
32.935 17.1935
32.965 15.0802
32.995 13.5381
33.025 11.3539
33.055 9.87061
33.085 8.45046
33.115 7.08028
33.145 5.44597
33.175 5.35724
33.205 4.55696
33.235 3.09405
33.265 2.68967
33.295 2.32512
33.325 2.20463
33.355 1.39405
33.385 1.4174
33.415 1.33256
33.445 1.27718
33.475 1.20326
33.505 1.15706
33.535 0.661636
33.565 0.317033
33.595 0.421793
33.625 0.337749
33.655 0.304952
33.685 0.442298
33.715 -0.0929795
33.745 -0.177635
33.775 0.35805
33.805 0.893353
33.835 1.18513
33.865 1.85211
33.895 2.60752
33.925 2.67222
33.955 2.61204
33.985 3.2168
34.015 4.52018
34.045 5.6706
34.075 6.79989
34.105 7.66969
34.135 8.0197
34.165 9.24068
34.195 10.1329
34.225 10.5062
34.255 10.8136
34.285 10.9747
34.315 10.4005
34.345 10.3668
34.375 10.2104
34.405 9.7163
34.435 8.86997
34.465 8.14639
34.495 7.57572
34.525 6.50057
34.555 5.80296
34.585 4.7719
34.615 4.04751
34.645 3.47332
34.675 3.31998
34.705 3.11171
34.735 2.93068
34.765 2.16341
34.795 1.30055
34.825 0.99169
34.855 1.17513
34.885 1.43096
34.915 0.868699
34.945 1.10122
34.975 1.16292
35.005 0.617641
35.035 0.733828
35.065 0.590965
35.095 -0.125829
35.125 -0.186299
35.155 0.0115832
35.185 0.796037
35.215 1.41755
35.245 1.09795
35.275 1.43727
35.305 1.08651
35.335 1.12638
35.365 1.27278
35.395 1.18569
35.425 0.642996
35.455 1.15816
35.485 1.2915
35.515 0.860667
35.545 0.519924
35.575 -0.250076
35.605 -0.108417
35.635 0.250664
35.665 0.183238
35.695 -0.0217851
35.725 -0.0656835
35.755 0.332331
35.785 -0.0752166
35.815 -0.031029
35.845 0.0802962
35.875 0.0910396
35.905 0.595803
35.935 0.557707
35.965 0.831674
35.995 0.513945
36.025 0.429688
36.055 -0.163519
36.085 0.738208
36.115 1.04419
36.145 1.52496
36.175 1.09501
36.205 1.38055
36.235 2.27757
36.265 2.83706
36.295 2.77604
36.325 2.9331
36.355 3.04731
36.385 2.72109
36.415 3.21087
36.445 3.26778
36.475 3.40849
36.505 3.73913
36.535 3.94377
36.565 4.47586
36.595 4.32319
36.625 4.29455
36.655 5.00121
36.685 5.97609
36.715 6.88152
36.745 7.86456
36.775 9.23175
36.805 10.8339
36.835 11.8205
36.865 13.8648
36.895 16.2092
36.925 18.5788
36.955 19.8984
36.985 22.5348
37.015 24.0453
37.045 23.9301
37.075 25.5429
37.105 26.0584
37.135 25.3385
37.165 26.1549
37.195 25.2765
37.225 24.5224
37.255 23.4173
37.285 22.2206
37.315 21.0448
37.345 20.3236
37.375 18.3981
37.405 16.9269
37.435 15.099
37.465 14.4821
37.495 14.4542
37.525 14.6738
37.555 13.8848
37.585 13.9282
37.615 14.5892
37.645 15.3104
37.675 16.6098
37.705 18.5875
37.735 21.5303
37.765 25.1392
37.795 28.8661
37.825 34.0809
37.855 39.7845
37.885 45
37.915 50.9299
37.945 55.6996
37.975 60.3371
38.005 64.9344
38.035 68.8584
38.065 71.6559
38.095 73.9127
38.125 74.0905
38.155 73.6548
38.185 73.0132
38.215 70.3567
38.245 66.4341
38.275 62.6738
38.305 58.627
38.335 53.7617
38.365 47.9864
38.395 42.9221
38.425 38.1326
38.455 33.0781
38.485 28.2773
38.515 24.3231
38.545 20.6732
38.575 17.3122
38.605 14.8487
38.635 13.1095
38.665 11.3281
38.695 9.69962
38.725 8.39272
38.755 8.02857
38.785 7.41602
38.815 7.07489
38.845 6.68725
38.875 6.86257
38.905 6.47026
38.935 6.49626
38.965 5.86752
38.995 5.30509
39.025 5.4185
39.055 5.79561
39.085 5.30655
39.115 5.30808
39.145 5.64321
39.175 5.71687
39.205 5.89719
39.235 6.19598
39.265 6.35041
39.295 6.55063
39.325 6.80831
39.355 7.66477
39.385 8.72924
39.415 9.87394
39.445 11.0126
39.475 12.2693
39.505 14.104
39.535 16.3958
39.565 18.1026
39.595 20.1251
39.625 21.9971
39.655 23.6584
39.685 25.3808
39.715 26.6332
39.745 28.0707
39.775 28.4645
39.805 28.4549
39.835 27.5651
39.865 26.5239
39.895 25.5397
39.925 24.071
39.955 22.8823
39.985 21.0628
40.015 19.3367
40.045 17.9647
40.075 16.0293
40.105 14.1289
40.135 12.32
40.165 11.2987
40.195 10.2573
40.225 9.38205
40.255 8.15252
40.285 7.76081
40.315 6.43487
40.345 5.66714
40.375 4.91586
40.405 4.37473
40.435 3.76278
40.465 3.74687
40.495 3.5099
40.525 2.71593
40.555 2.11051
40.585 1.58949
40.615 1.72114
40.645 1.6336
40.675 1.49731
40.705 1.17027
40.735 0.910802
40.765 0.572503
40.795 -0.16413
40.825 -0.0122834
40.855 -0.0264431
40.885 0.0968386
40.915 -0.0460691
40.945 0.0459098
40.975 0.0670375
41.005 0.146481
41.035 -0.0178764
41.065 0.215305
41.095 0.0951185
41.125 -0.259522
41.155 0.294299
41.185 0.104168
41.215 0.425867
41.245 0.327945
41.275 0.00862313
41.305 -0.222036
41.335 0.0674412
41.365 0.350496
41.395 0.430813
41.425 0.543422
41.455 0.860756
41.485 0.788771
41.515 0.867859
41.545 1.02229
41.575 0.911974
41.605 0.37802
41.635 0.284643
41.665 0.483456
41.695 0.549854
41.725 0.583865
41.755 0.492894
41.785 0.666121
41.815 1.1853
41.845 1.63913
41.875 2.04276
41.905 1.93226
41.935 2.35175
41.965 3.01482
41.995 4.07873
42.025 4.58614
42.055 5.44876
42.085 6.6577
42.115 7.74265
42.145 8.32385
42.175 8.82515
42.205 9.64602
42.235 9.81612
42.265 10.1016
42.295 11.0313
42.325 11.3457
42.355 11.0446
42.385 10.9153
42.415 10.9353
42.445 11.0336
42.475 10.6979
42.505 9.9869
42.535 9.48414
42.565 9.16204
42.595 8.65826
42.625 8.68795
42.655 8.43691
42.685 8.65588
42.715 8.59233
42.745 8.37024
42.775 9.71805
42.805 10.4858
42.835 11.9684
42.865 14.2455
42.895 16.6703
42.925 18.0487
42.955 20.221
42.985 22.5836
43.015 25.2637
43.045 28.778
43.075 31.3469
43.105 32.6462
43.135 34.5622
43.165 36.2945
43.195 37.2367
43.225 37.9573
43.255 37.4477
43.285 36.7186
43.315 35.6422
43.345 34.9653
43.375 33.9021
43.405 31.9419
43.435 30.0633
43.465 28.203
43.495 26.2919
43.525 24.031
43.555 21.1214
43.585 18.8603
43.615 16.6898
43.645 14.3737
43.675 13.2037
43.705 11.2601
43.735 9.73237
43.765 7.94946
43.795 6.96023
43.825 5.96467
43.855 5.86125
43.885 4.72526
43.915 3.46188
43.945 2.8631
43.975 2.94652
44.005 2.80221
44.035 1.95011
44.065 2.32439
44.095 1.84156
44.125 1.53319
44.155 1.06923
44.185 0.773927
44.215 0.636266
44.245 1.50519
44.275 1.81285
44.305 1.95798
44.335 2.20773
44.365 2.29275
44.395 3.50294
44.425 3.86702
44.455 4.88223
44.485 5.3795
44.515 5.44326
44.545 6.26972
44.575 7.40006
44.605 8.11133
44.635 8.70817
44.665 8.95002
44.695 8.9925
44.725 9.34468
44.755 8.9605
44.785 9.1596
44.815 8.52822
44.845 7.75813
44.875 7.7756
44.905 7.86329
44.935 7.14972
44.965 6.65699
44.995 5.99823
45.025 5.28527
45.055 4.14995
45.085 3.44509
45.115 3.24838
45.145 2.88472
45.175 2.40763
45.205 1.96738
45.235 1.7008
45.265 1.57629
45.295 1.47401
45.325 0.891264
45.355 0.4204
45.385 0.519319
45.415 0.665602
45.445 -0.0828511
45.475 0.013512
45.505 0.284262
45.535 0.199875
45.565 0.131565
45.595 -0.09491
45.625 0.567701
45.655 0.696809
45.685 0.851431
45.715 0.293522
45.745 -0.0742446
45.775 0.188751
45.805 -0.24822
45.835 -0.0300863
45.865 0.334483
45.895 0.785232
45.925 0.880895
45.955 0.72921
45.985 0.517022
46.015 0.577483
46.045 0.649346
46.075 0.991316
46.105 0.597501
46.135 0.645788
46.165 0.768789
46.195 0.911137
46.225 1.30333
46.255 1.41407
46.285 1.60374
46.315 2.36318
46.345 1.90643
46.375 2.27511
46.405 2.11797
46.435 1.90281
46.465 2.39929
46.495 2.08061
46.525 2.15402
46.555 2.52334
46.585 2.75086
46.615 2.71384
46.645 3.22335
46.675 3.65463
46.705 3.68508
46.735 3.98007
46.765 4.09362
46.795 4.22624
46.825 3.72735
46.855 4.50618
46.885 4.48361
46.915 4.78964
46.945 5.39044
46.975 5.30964
47.005 5.48439
47.035 5.7516
47.065 5.94427
47.095 6.33843
47.125 5.68477
47.155 5.72774
47.185 5.74187
47.215 5.93629
47.245 6.22831
47.275 6.40904
47.305 6.49048
47.335 6.99572
47.365 6.99106
47.395 7.34683
47.425 8.01903
47.455 8.42602
47.485 9.13671
47.515 10.5706
47.545 12.1479
47.575 13.6907
47.605 14.762
47.635 15.8124
47.665 16.9887
47.695 18.0691
47.725 19.3418
47.755 20.7814
47.785 21.2861
47.815 21.2896
47.845 21.3401
47.875 20.4929
47.905 20.8728
47.935 19.339
47.965 18.6619
47.995 18.0496
48.025 17.5387
48.055 16.2051
48.085 14.9465
48.115 13.6413
48.145 12.4023
48.175 11.4337
48.205 10.2006
48.235 9.41405
48.265 8.66753
48.295 8.13954
48.325 7.14447
48.355 6.11835
48.385 5.65484
48.415 5.38174
48.445 5.62026
48.475 5.20393
48.505 4.83523
48.535 4.59551
48.565 5.02442
48.595 4.82312
48.625 5.20963
48.655 5.09686
48.685 5.22894
48.715 5.68972
48.745 7.06958
48.775 7.87428
48.805 8.77629
48.835 10.7409
48.865 12.6416
48.895 14.999
48.925 17.6221
48.955 20.2204
48.985 22.0983
49.015 24.7922
49.045 28.0742
49.075 30.7637
49.105 32.079
49.135 33.7451
49.165 35.1084
49.195 36.1196
49.225 36.528
49.255 35.8648
49.285 34.8017
49.315 34.2346
49.345 33.5432
49.375 32.2448
49.405 30.1242
49.435 28.4013
49.465 26.6813
49.495 24.6097
49.525 22.2083
49.555 19.6414
49.585 17.8022
49.615 15.591
49.645 14.0929
49.675 12.1396
49.705 10.114
49.735 8.54828
49.765 7.12763
49.795 5.68037
49.825 5.14086
49.855 4.5779
49.885 3.93628
49.915 2.85055
49.945 1.95966
49.975 1.75278
50.005 1.91135
50.035 1.43393
50.065 0.787798
50.095 0.944225
50.125 0.796323
50.155 0.851221
50.185 0.761847
50.215 0.546069
50.245 0.606029
50.275 0.420788
50.305 0.625005
50.335 0.165578
50.365 -0.106343
50.395 0.0405801
50.425 0.316373
50.455 0.403533
50.485 0.803636
50.515 0.826371
50.545 -0.0124081
50.575 -0.0403284
50.605 0.629394
50.635 0.300232
50.665 0.218634
50.695 -0.253357
50.725 0.0827655
50.755 0.313516
50.77 0