File: Data/KMK245/pXRD/KMK245.xy
'Id: "" Comment: "Integrate frame JR_1045_02_0001.sfrmwith cursor Wedge Cursor #10" Operator: "XRAY" Anode: "Mo" Scantype: "TwoTheta" TimePerStep: "240"
10.09 0
10.12 0.0266667
10.15 -0.0392726
10.18 1.04659
10.21 1.65081
10.24 1.0353
10.27 2.61693
10.3 1.22924
10.33 0.294209
10.36 0.0751689
10.39 0.189975
10.42 0.794112
10.45 2.28149
10.48 1.57653
10.51 1.15009
10.54 0.773616
10.57 0.620105
10.6 1.18691
10.63 0.59118
10.66 1.73536
10.69 2.67407
10.72 3.80154
10.75 3.66218
10.78 4.29856
10.81 5.84917
10.84 6.77691
10.87 6.29911
10.9 5.68223
10.93 5.59265
10.96 6.12306
10.99 7.40129
11.02 7.06097
11.05 4.98715
11.08 4.84184
11.11 3.85345
11.14 1.95426
11.17 3.02817
11.2 1.49694
11.23 0.198
11.26 1.5709
11.29 1.47134
11.32 1.60262
11.35 1.15683
11.38 1.54634
11.41 0.514507
11.44 -0.235624
11.47 0.13424
11.5 0.975842
11.53 0.408517
11.56 1.10862
11.59 0.895867
11.62 0.31282
11.65 0.402757
11.68 1.30089
11.71 2.47215
11.74 1.96337
11.77 3.41679
11.8 3.87787
11.83 3.87281
11.86 5.90379
11.89 4.62443
11.92 4.39079
11.95 5.4583
11.98 5.34967
12.01 4.61719
12.04 4.22914
12.07 4.3804
12.1 4.09298
12.13 4.11288
12.16 2.94218
12.19 2.97394
12.22 3.4577
12.25 3.413
12.28 2.8527
12.31 1.43354
12.34 0.868742
12.37 1.21524
12.4 0.965122
12.43 0.493413
12.46 0.347999
12.49 0.660488
12.52 0.781607
12.55 0.320631
12.58 -0.0808924
12.61 0.379508
12.64 1.05745
12.67 -0.292638
12.7 -0.0599152
12.73 -0.153816
12.76 -0.296979
12.79 0.99918
12.82 0.430359
12.85 0.970891
12.88 0.769441
12.91 1.15094
12.94 1.14669
12.97 0.842303
13 0.79738
13.03 1.88978
13.06 2.16174
13.09 2.34433
13.12 2.78468
13.15 3.55798
13.18 3.98303
13.21 2.27706
13.24 2.32089
13.27 2.51387
13.3 3.34231
13.33 5.05131
13.36 5.7815
13.39 5.82128
13.42 7.77712
13.45 10.081
13.48 12.7601
13.51 16.7938
13.54 23.0046
13.57 30.9441
13.6 38.3757
13.63 50.1231
13.66 59.58
13.69 69.7451
13.72 79.5947
13.75 88.9772
13.78 95.68
13.81 97.4864
13.84 93.4866
13.87 89.1455
13.9 80.158
13.93 72.0076
13.96 60.6887
13.99 49.5672
14.02 40.1309
14.05 31.499
14.08 24.2509
14.11 17.4828
14.14 12.5141
14.17 9.3462
14.2 8.5955
14.23 7.1107
14.26 5.74957
14.29 4.74857
14.32 4.24199
14.35 2.82839
14.38 2.76025
14.41 2.08844
14.44 2.54611
14.47 2.25102
14.5 1.65582
14.53 1.97487
14.56 2.29785
14.59 3.83157
14.62 3.49148
14.65 3.50872
14.68 2.80196
14.71 3.37376
14.74 3.84889
14.77 3.00151
14.8 1.43969
14.83 1.16812
14.86 2.07419
14.89 2.24404
14.92 1.78804
14.95 2.26142
14.98 0.968981
15.01 1.03651
15.04 1.02402
15.07 1.66657
15.1 2.15618
15.13 2.58338
15.16 2.74592
15.19 2.29523
15.22 3.24979
15.25 4.21603
15.28 4.18404
15.31 5.25136
15.34 5.17691
15.37 5.88752
15.4 7.42165
15.43 8.63947
15.46 8.06239
15.49 9.15193
15.52 11.2817
15.55 12.2705
15.58 13.6135
15.61 15.1225
15.64 16.585
15.67 17.1787
15.7 19.4135
15.73 22.6471
15.76 24.7391
15.79 28.5269
15.82 33.2388
15.85 41.3213
15.88 52.0013
15.91 64.46
15.94 82.9617
15.97 105.147
16 131.775
16.03 165.415
16.06 197.184
16.09 230.179
16.12 259.57
16.15 278.265
16.18 294.765
16.21 299.491
16.24 291.806
16.27 276.173
16.3 254.679
16.33 226.825
16.36 196.321
16.39 165.781
16.42 134.191
16.45 105.838
16.48 83.1142
16.51 66.3576
16.54 51.4942
16.57 41.3433
16.6 34.1401
16.63 28.5514
16.66 25.5931
16.69 23.0709
16.72 22.0322
16.75 21.4806
16.78 21.7772
16.81 21.956
16.84 20.4538
16.87 20.3188
16.9 20.5623
16.93 19.5566
16.96 18.2198
16.99 16.4918
17.02 15.5158
17.05 13.7023
17.08 11.7201
17.11 9.71984
17.14 7.786
17.17 6.48864
17.2 4.89598
17.23 4.09082
17.26 2.92135
17.29 2.40633
17.32 2.03441
17.35 2.16846
17.38 2.06218
17.41 1.63502
17.44 1.48057
17.47 1.49976
17.5 1.69388
17.53 1.27621
17.56 1.06373
17.59 0.848233
17.62 1.15661
17.65 1.23295
17.68 1.64671
17.71 1.43497
17.74 1.49836
17.77 0.597582
17.8 0.483326
17.83 0.459544
17.86 0.185696
17.89 -0.247903
17.92 0.504868
17.95 0.601107
17.98 0.647409
18.01 0.632103
18.04 1.27212
18.07 1.26177
18.1 1.01006
18.13 0.355002
18.16 0.39483
18.19 -0.105033
18.22 0.448266
18.25 1.11751
18.28 0.797325
18.31 0.702947
18.34 0.943867
18.37 0.652898
18.4 1.40127
18.43 1.27002
18.46 1.33913
18.49 1.65502
18.52 1.71549
18.55 2.20514
18.58 1.41984
18.61 0.842167
18.64 0.879297
18.67 0.610943
18.7 0.827222
18.73 1.09369
18.76 1.60473
18.79 1.79
18.82 1.6701
18.85 1.76521
18.88 2.05116
18.91 2.05821
18.94 3.2629
18.97 3.10462
19 2.58006
19.03 3.41859
19.06 3.68618
19.09 3.62859
19.12 4.42797
19.15 5.42184
19.18 6.76553
19.21 8.29856
19.24 9.45414
19.27 12.3675
19.3 14.8117
19.33 18.5711
19.36 23.3805
19.39 27.7276
19.42 33.0876
19.45 39.8275
19.48 46.5116
19.51 50.7474
19.54 54.9604
19.57 55.5465
19.6 57.116
19.63 56.365
19.66 52.1809
19.69 47.5599
19.72 42.2497
19.75 35.9382
19.78 29.587
19.81 22.9265
19.84 17.7303
19.87 14.1287
19.9 12.0097
19.93 8.87105
19.96 7.07133
19.99 6.14572
20.02 5.67226
20.05 5.39464
20.08 4.68644
20.11 3.147
20.14 2.89958
20.17 2.57522
20.2 2.75602
20.23 1.58634
20.26 1.10618
20.29 1.23847
20.32 0.369675
20.35 1.13117
20.38 1.00096
20.41 0.789246
20.44 0.516133
20.47 0.301493
20.5 0.847133
20.53 0.823169
20.56 1.31043
20.59 1.33645
20.62 0.254147
20.65 0.761326
20.68 0.939664
20.71 1.51022
20.74 1.40516
20.77 1.24549
20.8 0.837312
20.83 0.433025
20.86 0.30188
20.89 -0.000956679
20.92 -0.0746979
20.95 0.786367
20.98 0.0225448
21.01 -0.165315
21.04 0.74549
21.07 0.700246
21.1 0.29456
21.13 0.480374
21.16 0.507938
21.19 0.801536
21.22 1.41079
21.25 1.14103
21.28 1.31201
21.31 1.00177
21.34 0.694288
21.37 0.684237
21.4 0.862505
21.43 0.526947
21.46 0.398367
21.49 0.316914
21.52 -0.0928065
21.55 0.623195
21.58 0.625967
21.61 0.733945
21.64 1.15467
21.67 0.859944
21.7 0.630383
21.73 0.694689
21.76 0.147069
21.79 0.178774
21.82 0.630646
21.85 1.47724
21.88 0.843951
21.91 0.538372
21.94 0.638325
21.97 0.329361
22 0.577525
22.03 0.0179241
22.06 0.207631
22.09 -0.0482077
22.12 0.566382
22.15 0.429496
22.18 0.90197
22.21 0.988828
22.24 0.751573
22.27 1.18621
22.3 1.37072
22.33 1.75452
22.36 1.62776
22.39 1.5531
22.42 1.94183
22.45 2.18418
22.48 1.3308
22.51 1.11493
22.54 1.01608
22.57 1.51695
22.6 1.70341
22.63 1.3714
22.66 1.14693
22.69 0.739551
22.72 0.595156
22.75 0.637836
22.78 0.527139
22.81 -0.157938
22.84 0.898805
22.87 1.0981
22.9 0.915706
22.93 0.524609
22.96 0.471482
22.99 0.250032
23.02 0.252488
23.05 0.798087
23.08 0.996373
23.11 0.862761
23.14 0.792851
23.17 0.948759
23.2 0.6148
23.23 0.725269
23.26 0.647971
23.29 0.343327
23.32 0.67985
23.35 1.29203
23.38 0.98886
23.41 0.46824
23.44 0.835288
23.47 1.46319
23.5 1.65227
23.53 2.26967
23.56 2.46471
23.59 3.11933
23.62 3.30356
23.65 3.61129
23.68 4.22267
23.71 5.92565
23.74 8.20791
23.77 10.5074
23.8 13.6644
23.83 16.6911
23.86 20.2822
23.89 23.8796
23.92 26.4845
23.95 28.5855
23.98 29.5219
24.01 31.3515
24.04 32.0186
24.07 31.0795
24.1 29.5728
24.13 27.434
24.16 25.6935
24.19 22.9345
24.22 19.2344
24.25 16.9122
24.28 14.2229
24.31 11.155
24.34 9.1135
24.37 7.79867
24.4 6.48317
24.43 5.23236
24.46 5.23714
24.49 3.62912
24.52 3.92609
24.55 4.51327
24.58 3.90428
24.61 3.68982
24.64 3.62528
24.67 3.51495
24.7 3.27176
24.73 4.0334
24.76 4.40714
24.79 4.44468
24.82 4.5978
24.85 4.56468
24.88 5.36284
24.91 5.66668
24.94 6.61224
24.97 6.50963
25 7.51438
25.03 8.84912
25.06 9.84727
25.09 11.0847
25.12 12.3653
25.15 14.9154
25.18 18.9904
25.21 23.1936
25.24 29.1061
25.27 36.411
25.3 45.1323
25.33 55.7195
25.36 65.3171
25.39 73.5912
25.42 81.9017
25.45 88.4342
25.48 93.2886
25.51 96.2731
25.54 95.4659
25.57 91.3537
25.6 85.8908
25.63 78.2899
25.66 69.0156
25.69 59.7849
25.72 51.089
25.75 41.7466
25.78 33.9206
25.81 27.3992
25.84 21.7583
25.87 17.5431
25.9 13.8216
25.93 11.2275
25.96 9.1665
25.99 7.63343
26.02 6.48362
26.05 5.766
26.08 4.86502
26.11 4.03448
26.14 3.4229
26.17 2.96707
26.2 2.95224
26.23 2.54898
26.26 2.56229
26.29 2.70683
26.32 2.80128
26.35 2.49802
26.38 2.14077
26.41 2.07653
26.44 2.21229
26.47 2.80047
26.5 2.48619
26.53 2.6525
26.56 2.50724
26.59 2.86972
26.62 2.86368
26.65 3.15831
26.68 3.24239
26.71 3.81328
26.74 3.79423
26.77 4.17845
26.8 4.141
26.83 4.16265
26.86 4.56095
26.89 5.20867
26.92 5.59878
26.95 5.42827
26.98 5.49238
27.01 5.93658
27.04 6.12722
27.07 6.10677
27.1 6.34877
27.13 6.39642
27.16 6.95795
27.19 7.28957
27.22 7.62524
27.25 8.17962
27.28 8.74796
27.31 9.31172
27.34 10.3855
27.37 10.9177
27.4 12.9102
27.43 15.7606
27.46 19.1899
27.49 24.3228
27.52 30.9568
27.55 40.6074
27.58 52.3189
27.61 64.5351
27.64 78.5094
27.67 91.6782
27.7 104.424
27.73 115.542
27.76 126.184
27.79 132.404
27.82 135.674
27.85 134.786
27.88 131.361
27.91 122.196
27.94 111.507
27.97 100.699
28 88.9512
28.03 76.6588
28.06 63.591
28.09 52.4872
28.12 44.2159
28.15 35.8716
28.18 28.4544
28.21 22.366
28.24 17.5619
28.27 13.7691
28.3 11.4422
28.33 9.76608
28.36 8.17116
28.39 6.88378
28.42 6.28665
28.45 5.71449
28.48 5.19335
28.51 5.15665
28.54 4.85467
28.57 4.13874
28.6 3.82371
28.63 3.53778
28.66 2.87643
28.69 2.53472
28.72 2.83611
28.75 2.31809
28.78 2.35471
28.81 2.24347
28.84 1.98591
28.87 2.14219
28.9 2.08137
28.93 2.01882
28.96 1.76666
28.99 1.83883
29.02 2.35223
29.05 2.00341
29.08 1.89328
29.11 1.54873
29.14 1.47195
29.17 1.1798
29.2 1.28829
29.23 0.690101
29.26 0.70311
29.29 1.13037
29.32 1.02111
29.35 0.627095
29.38 0.917638
29.41 0.608906
29.44 0.545406
29.47 0.320805
29.5 0.383517
29.53 0.175674
29.56 0.515753
29.59 0.632467
29.62 0.33589
29.65 0.198692
29.68 0.0110341
29.71 -0.216848
29.74 0.0218425
29.77 0.36196
29.8 0.495561
29.83 0.478506
29.86 0.597382
29.89 0.65882
29.92 0.475496
29.95 0.890255
29.98 0.923833
30.01 0.680837
30.04 0.517019
30.07 0.910679
30.1 0.514338
30.13 0.725947
30.16 0.703294
30.19 0.691302
30.22 0.735848
30.25 0.898522
30.28 1.3689
30.31 1.72064
30.34 1.65389
30.37 1.205
30.4 1.00134
30.43 0.838064
30.46 0.772784
30.49 1.58525
30.52 1.39741
30.55 1.31631
30.58 1.06652
30.61 1.11125
30.64 1.65616
30.67 1.53894
30.7 1.72621
30.73 1.71966
30.76 1.58829
30.79 1.06131
30.82 1.58175
30.85 2.26767
30.88 3.45035
30.91 4.13159
30.94 5.12293
30.97 6.10482
31 7.06979
31.03 8.16836
31.06 9.01468
31.09 10.1142
31.12 11.4293
31.15 12.2772
31.18 11.8881
31.21 12.0357
31.24 11.8787
31.27 10.7519
31.3 10.1488
31.33 9.9409
31.36 9.28648
31.39 8.31153
31.42 7.16205
31.45 6.53156
31.48 5.4704
31.51 4.84378
31.54 4.13089
31.57 3.44483
31.6 2.74336
31.63 2.46102
31.66 2.85368
31.69 2.74398
31.72 2.40446
31.75 2.58994
31.78 2.52217
31.81 2.98922
31.84 2.93271
31.87 3.13896
31.9 3.53271
31.93 4.02778
31.96 4.11565
31.99 4.49005
32.02 5.08246
32.05 7.50989
32.08 9.13394
32.11 10.4736
32.14 13.3807
32.17 15.1989
32.2 17.9749
32.23 21.1371
32.26 22.5072
32.29 25.0069
32.32 26.3705
32.35 26.3106
32.38 27.469
32.41 27.5758
32.44 26.5385
32.47 25.9281
32.5 23.7514
32.53 21.4944
32.56 20.5205
32.59 19.9821
32.62 18.1989
32.65 16.7997
32.68 15.4259
32.71 14.7846
32.74 14.0421
32.77 12.9571
32.8 11.4378
32.83 10.254
32.86 9.18136
32.89 8.20257
32.92 7.38
32.95 5.75689
32.98 5.45222
33.01 5.36381
33.04 4.39628
33.07 3.66223
33.1 2.39618
33.13 1.78215
33.16 1.57622
33.19 1.56306
33.22 1.02984
33.25 0.901479
33.28 0.830043
33.31 0.832937
33.34 1.08579
33.37 0.948797
33.4 0.539922
33.43 0.418818
33.46 -0.0397171
33.49 -0.211085
33.52 0.335984
33.55 0.572034
33.58 0.400267
33.61 0.135558
33.64 0.138994
33.67 0.364551
33.7 0.0410648
33.73 0.119884
33.76 0.139125
33.79 0.496289
33.82 0.838183
33.85 1.00072
33.88 0.891752
33.91 0.809388
33.94 1.18634
33.97 1.83105
34 2.19913
34.03 3.04535
34.06 3.54916
34.09 4.2295
34.12 4.26157
34.15 4.91487
34.18 6.15256
34.21 5.84358
34.24 6.07176
34.27 6.09893
34.3 5.89591
34.33 5.96641
34.36 4.9247
34.39 4.32483
34.42 3.89244
34.45 3.32603
34.48 2.67661
34.51 2.68431
34.54 1.91925
34.57 2.05089
34.6 1.68301
34.63 1.15994
34.66 0.881358
34.69 0.672106
34.72 0.868348
34.75 0.714871
34.78 0.777166
34.81 0.760084
34.84 0.136391
34.87 0.286893
34.9 0.342536
34.93 0.580667
34.96 0.407647
34.99 0.0378483
35.02 0.435221
35.05 0.175761
35.08 0.829097
35.11 0.68831
35.14 0.797381
35.17 0.446807
35.2 -0.0416758
35.23 0.40036
35.26 0.717499
35.29 0.818369
35.32 0.485859
35.35 0.340423
35.38 0.692137
35.41 0.687394
35.44 0.942215
35.47 0.552682
35.5 0.234856
35.53 0.318258
35.56 0.267894
35.59 0.676629
35.62 0.71857
35.65 0.409674
35.68 -0.142055
35.71 0.132449
35.74 0.343272
35.77 0.55726
35.8 0.5275
35.83 0.349133
35.86 0.321153
35.89 -0.0405033
35.92 0.238721
35.95 0.443744
35.98 0.369929
36.01 0.762142
36.04 0.919014
36.07 0.460713
36.1 0.597718
36.13 0.655912
36.16 0.801428
36.19 0.588798
36.22 0.483662
36.25 0.425874
36.28 0.94754
36.31 1.50605
36.34 1.21507
36.37 1.55086
36.4 1.01258
36.43 1.34749
36.46 1.68933
36.49 1.62448
36.52 1.28979
36.55 1.42204
36.58 1.74745
36.61 2.04354
36.64 2.28521
36.67 2.41844
36.7 2.40281
36.73 2.23396
36.76 3.33112
36.79 3.96654
36.82 5.1647
36.85 5.79952
36.88 6.48231
36.91 7.38836
36.94 8.91581
36.97 9.8773
37 11.1673
37.03 11.8792
37.06 12.4845
37.09 12.3961
37.12 11.8698
37.15 10.9704
37.18 10.3993
37.21 10.642
37.24 10.0326
37.27 9.31339
37.3 8.10464
37.33 7.30483
37.36 6.60431
37.39 6.07804
37.42 5.73774
37.45 5.84577
37.48 4.96582
37.51 4.89726
37.54 4.28381
37.57 4.24378
37.6 4.84961
37.63 5.50576
37.66 5.7764
37.69 6.34305
37.72 7.12148
37.75 8.53775
37.78 10.8608
37.81 13.5638
37.84 16.6052
37.87 19.6036
37.9 22.7398
37.93 26.3058
37.96 28.9019
37.99 30.8188
38.02 33.5759
38.05 34.563
38.08 35.5163
38.11 35.9741
38.14 35.1383
38.17 33.5424
38.2 31.5312
38.23 29.3236
38.26 26.9545
38.29 24.4943
38.32 21.5464
38.35 19.1262
38.38 16.85
38.41 14.3846
38.44 12.0269
38.47 10.3502
38.5 8.17779
38.53 6.5537
38.56 5.11423
38.59 3.52868
38.62 3.1933
38.65 2.77508
38.68 2.42973
38.71 2.2674
38.74 1.99262
38.77 1.6266
38.8 1.32486
38.83 1.32207
38.86 1.22377
38.89 1.62878
38.92 1.70435
38.95 1.52686
38.98 1.6563
39.01 1.81462
39.04 1.61335
39.07 1.6039
39.1 1.97701
39.13 1.77531
39.16 1.71544
39.19 1.88331
39.22 1.58134
39.25 1.83802
39.28 1.96001
39.31 2.07584
39.34 2.40593
39.37 2.85794
39.4 3.38629
39.43 3.58929
39.46 4.47623
39.49 5.73804
39.52 7.04853
39.55 7.64888
39.58 8.75556
39.61 10.559
39.64 12.08
39.67 12.7305
39.7 12.9224
39.73 13.0773
39.76 13.2707
39.79 12.5293
39.82 12.0515
39.85 11.954
39.88 11.1501
39.91 10.4115
39.94 9.37706
39.97 8.72254
40 7.77156
40.03 7.13831
40.06 5.99042
40.09 5.48076
40.12 4.72336
40.15 3.8765
40.18 3.43117
40.21 3.14513
40.24 2.95338
40.27 2.67732
40.3 2.12002
40.33 1.72722
40.36 1.75271
40.39 1.51904
40.42 1.17745
40.45 0.985872
40.48 0.748082
40.51 0.768453
40.54 0.946022
40.57 0.514805
40.6 0.849393
40.63 0.687073
40.66 0.723103
40.69 0.479962
40.72 0.30342
40.75 0.254273
40.78 0.195778
40.81 -0.0500691
40.84 0.338521
40.87 0.614167
40.9 0.592345
40.93 0.280054
40.96 0.326604
40.99 -0.115995
41.02 0.0408724
41.05 0.0302957
41.08 0.168096
41.11 0.0547639
41.14 -0.126307
41.17 0.0556463
41.2 -0.0684898
41.23 -0.0235636
41.26 0.215957
41.29 0.254454
41.32 0.332656
41.35 0.0431924
41.38 -0.0042404
41.41 0.219561
41.44 0.103633
41.47 0.0573597
41.5 0.409323
41.53 0.514798
41.56 0.499574
41.59 0.433634
41.62 0.0902748
41.65 0.441531
41.68 0.714195
41.71 0.757138
41.74 0.720397
41.77 0.790426
41.8 0.968418
41.83 0.900924
41.86 1.01944
41.89 0.912665
41.92 0.844706
41.95 1.0415
41.98 2.02672
42.01 2.18785
42.04 2.43581
42.07 3.25725
42.1 3.46189
42.13 3.57546
42.16 4.13451
42.19 4.60747
42.22 5.20642
42.25 5.29389
42.28 5.16274
42.31 4.97071
42.34 5.15685
42.37 5.22034
42.4 5.3946
42.43 4.76775
42.46 4.66884
42.49 4.53946
42.52 3.97423
42.55 3.82689
42.58 3.70307
42.61 3.04362
42.64 3.47687
42.67 3.31366
42.7 3.01346
42.73 3.22896
42.76 3.51654
42.79 4.38247
42.82 4.97727
42.85 4.8218
42.88 5.68012
42.91 7.24508
42.94 8.58927
42.97 10.349
43 12.2171
43.03 14.2555
43.06 15.5168
43.09 16.0836
43.12 16.717
43.15 16.6841
43.18 17.2861
43.21 17.7127
43.24 17.6295
43.27 16.6772
43.3 15.6733
43.33 15.205
43.36 14.937
43.39 13.9318
43.42 13.3851
43.45 12.076
43.48 10.6363
43.51 9.53822
43.54 8.30457
43.57 7.58694
43.6 6.79253
43.63 5.41748
43.66 4.5711
43.69 3.95607
43.72 3.47186
43.75 3.29647
43.78 2.71921
43.81 2.18927
43.84 2.10149
43.87 1.76118
43.9 1.38179
43.93 1.35181
43.96 1.5348
43.99 1.25041
44.02 1.17285
44.05 1.02134
44.08 0.533673
44.11 0.497221
44.14 1.00321
44.17 1.1401
44.2 0.873055
44.23 0.852713
44.26 0.708021
44.29 1.0179
44.32 1.55809
44.35 1.60819
44.38 1.42796
44.41 2.1474
44.44 2.68548
44.47 3.26526
44.5 3.42318
44.53 3.87434
44.56 4.14106
44.59 4.54533
44.62 4.67005
44.65 4.67853
44.68 4.76093
44.71 4.82207
44.74 4.77144
44.77 4.20875
44.8 4.2075
44.83 3.34438
44.86 3.73839
44.89 3.40316
44.92 3.21359
44.95 2.90093
44.98 2.43534
45.01 2.32233
45.04 2.0089
45.07 1.56196
45.1 1.53486
45.13 1.33553
45.16 1.36632
45.19 1.22003
45.22 1.07268
45.25 1.51203
45.28 1.33388
45.31 1.04573
45.34 0.442415
45.37 0.440518
45.4 0.664227
45.43 0.586003
45.46 0.489786
45.49 0.739621
45.52 0.762107
45.55 0.737194
45.58 0.43509
45.61 0.0294064
45.64 -0.104217
45.67 0.335659
45.7 0.201606
45.73 -0.0945079
45.76 -0.0241035
45.79 0.0222118
45.82 0.0268918
45.85 0.339349
45.88 0.517907
45.91 0.346858
45.94 0.670874
45.97 0.414989
46 0.364511
46.03 0.421111
46.06 0.345418
46.09 0.477173
46.12 0.577626
46.15 0.737452
46.18 0.824885
46.21 0.701492
46.24 0.470937
46.27 0.674658
46.3 1.07056
46.33 1.22645
46.36 1.01083
46.39 0.9034
46.42 0.891216
46.45 0.942217
46.48 0.770867
46.51 0.687217
46.54 0.610187
46.57 0.729297
46.6 1.25929
46.63 1.28687
46.66 1.20304
46.69 1.21631
46.72 0.966704
46.75 1.26975
46.78 1.34287
46.81 1.527
46.84 1.94154
46.87 2.19092
46.9 2.08343
46.93 2.21817
46.96 2.36103
46.99 2.01721
47.02 2.06598
47.05 2.03942
47.08 2.31932
47.11 2.59218
47.14 2.35383
47.17 2.36658
47.2 2.33258
47.23 1.99356
47.26 2.0327
47.29 2.35686
47.32 2.72807
47.35 2.44807
47.38 2.95406
47.41 3.07488
47.44 3.51695
47.47 3.97238
47.5 4.46814
47.53 5.31296
47.56 5.59621
47.59 6.45537
47.62 7.32687
47.65 7.81052
47.68 8.38738
47.71 8.84141
47.74 9.17321
47.77 9.19237
47.8 9.37942
47.83 9.14694
47.86 9.38729
47.89 8.60218
47.92 7.95021
47.95 7.37379
47.98 7.54032
48.01 6.65861
48.04 6.54486
48.07 6.31375
48.1 5.65389
48.13 4.9397
48.16 4.51403
48.19 4.29724
48.22 3.58699
48.25 3.43899
48.28 2.93437
48.31 2.49625
48.34 2.62085
48.37 2.02892
48.4 1.60088
48.43 1.4679
48.46 1.1112
48.49 1.2847
48.52 1.55571
48.55 1.3552
48.58 1.99251
48.61 1.83223
48.64 2.29103
48.67 2.32802
48.7 2.31431
48.73 2.39745
48.76 3.17332
48.79 3.39684
48.82 3.65964
48.85 4.4418
48.88 5.69339
48.91 6.95024
48.94 8.55561
48.97 10.5244
49 12.2166
49.03 13.1319
49.06 14.254
49.09 15.4406
49.12 16.3535
49.15 16.9652
49.18 16.965
49.21 16.644
49.24 16.0685
49.27 15.1736
49.3 14.6963
49.33 13.2439
49.36 12.4673
49.39 12.1946
49.42 11.1397
49.45 10.3599
49.48 10.0307
49.51 8.74782
49.54 8.29182
49.57 7.00212
49.6 5.94661
49.63 5.06734
49.66 4.62011
49.69 3.38142
49.72 2.92466
49.75 2.05129
49.78 1.72393
49.81 1.75893
49.84 1.51156
49.87 0.971708
49.9 0.940012
49.93 0.593002
49.96 0.350033
49.99 0.44396
50.02 0.645637
50.05 0.490024
50.08 0.166493
50.11 0.339725
50.14 0.492559
50.17 0.437065
50.2 -0.0292242
50.23 0.0280034
50.26 0.298946
50.29 -0.0523069
50.32 0.472018
50.35 0.502571
50.38 0.421634
50.41 0.412602
50.44 -0.0496909
50.47 -0.0350319
50.5 0.179059
50.53 0.188113
50.55 0